{"condition":0,"counterbalance":0,"assignmentId":"3CTOC39K38ROB6DPW5IXPUC7Z5EJ75","workerId":"A18I566TMVVSFQ","hitId":"3538U0YQ1GVNJ1TCL1JK9WDCLM33FY","currenttrial":1315,"bonus":0,"data":[{"uniqueid":"A18I566TMVVSFQ:3CTOC39K38ROB6DPW5IXPUC7Z5EJ75","current_trial":0,"dateTime":1512442372243,"trialdata":{"view_history":"[{\"page_index\":0,\"viewing_time\":10355},{\"page_index\":1,\"viewing_time\":4121},{\"page_index\":2,\"viewing_time\":9698},{\"page_index\":3,\"viewing_time\":4707},{\"page_index\":4,\"viewing_time\":7949},{\"page_index\":5,\"viewing_time\":9336}]","rt":46166,"trial_type":"instructions","trial_index":0,"time_elapsed":46167,"internal_node_id":"0.0-0.0"}},{"uniqueid":"A18I566TMVVSFQ:3CTOC39K38ROB6DPW5IXPUC7Z5EJ75","current_trial":1,"dateTime":1512442379113,"trialdata":{"view_history":"[{\"page_index\":0,\"viewing_time\":5867}]","rt":5868,"trial_type":"instructions","trial_index":1,"time_elapsed":53037,"internal_node_id":"0.0-1.0"}},{"uniqueid":"A18I566TMVVSFQ:3CTOC39K38ROB6DPW5IXPUC7Z5EJ75","current_trial":2,"dateTime":1512442382120,"trialdata":{"rt":-1,"correct":false,"stimulus":"static/img/stimuli/images99/image1.jpg","key_press":-1,"trial_type":"categorize","trial_index":2,"time_elapsed":56044,"internal_node_id":"0.0-2.0-0.0"}},{"uniqueid":"A18I566TMVVSFQ:3CTOC39K38ROB6DPW5IXPUC7Z5EJ75","current_trial":3,"dateTime":1512442384279,"trialdata":{"rt":657,"correct":false,"stimulus":"static/img/stimuli/images99/image2.jpg","key_press":75,"trial_type":"categorize","trial_index":3,"time_elapsed":58203,"internal_node_id":"0.0-2.0-1.0"}},{"uniqueid":"A18I566TMVVSFQ:3CTOC39K38ROB6DPW5IXPUC7Z5EJ75","current_trial":4,"dateTime":1512442386262,"trialdata":{"rt":482,"correct":true,"stimulus":"static/img/stimuli/images99/image1.jpg","key_press":74,"trial_type":"categorize","trial_index":4,"time_elapsed":60186,"internal_node_id":"0.0-2.0-2.0"}},{"uniqueid":"A18I566TMVVSFQ:3CTOC39K38ROB6DPW5IXPUC7Z5EJ75","current_trial":5,"dateTime":1512442388211,"trialdata":{"rt":446,"correct":true,"stimulus":"static/img/stimuli/images99/image1.jpg","key_press":74,"trial_type":"categorize","trial_index":5,"time_elapsed":62135,"internal_node_id":"0.0-2.0-3.0"}},{"uniqueid":"A18I566TMVVSFQ:3CTOC39K38ROB6DPW5IXPUC7Z5EJ75","current_trial":6,"dateTime":1512442390288,"trialdata":{"rt":574,"correct":false,"stimulus":"static/img/stimuli/images99/image2.jpg","key_press":75,"trial_type":"categorize","trial_index":6,"time_elapsed":64212,"internal_node_id":"0.0-2.0-4.0"}},{"uniqueid":"A18I566TMVVSFQ:3CTOC39K38ROB6DPW5IXPUC7Z5EJ75","current_trial":7,"dateTime":1512442395190,"trialdata":{"view_history":"[{\"page_index\":0,\"viewing_time\":3901}]","rt":3901,"trial_type":"instructions","trial_index":7,"time_elapsed":69114,"internal_node_id":"0.0-3.0"}},{"uniqueid":"A18I566TMVVSFQ:3CTOC39K38ROB6DPW5IXPUC7Z5EJ75","current_trial":8,"dateTime":1512442398766,"trialdata":{"view_history":"[{\"page_index\":0,\"viewing_time\":2575}]","rt":2575,"trial_type":"instructions","trial_index":8,"time_elapsed":72690,"internal_node_id":"0.0-4.0"}},{"uniqueid":"A18I566TMVVSFQ:3CTOC39K38ROB6DPW5IXPUC7Z5EJ75","current_trial":9,"dateTime":1512442400723,"trialdata":{"rt":455,"correct":true,"stimulus":"static/img/stimuli/images5/image2.jpg","key_press":74,"trial_type":"categorize","trial_index":9,"time_elapsed":74647,"internal_node_id":"0.0-5.0-0.0"}},{"uniqueid":"A18I566TMVVSFQ:3CTOC39K38ROB6DPW5IXPUC7Z5EJ75","current_trial":10,"dateTime":1512442402565,"trialdata":{"rt":341,"correct":false,"stimulus":"static/img/stimuli/images5/image6.jpg","key_press":74,"trial_type":"categorize","trial_index":10,"time_elapsed":76489,"internal_node_id":"0.0-5.0-1.0"}},{"uniqueid":"A18I566TMVVSFQ:3CTOC39K38ROB6DPW5IXPUC7Z5EJ75","current_trial":11,"dateTime":1512442404587,"trialdata":{"rt":520,"correct":false,"stimulus":"static/img/stimuli/images5/image1.jpg","key_press":74,"trial_type":"categorize","trial_index":11,"time_elapsed":78511,"internal_node_id":"0.0-5.0-2.0"}},{"uniqueid":"A18I566TMVVSFQ:3CTOC39K38ROB6DPW5IXPUC7Z5EJ75","current_trial":12,"dateTime":1512442406568,"trialdata":{"rt":479,"correct":false,"stimulus":"static/img/stimuli/images5/image1.jpg","key_press":74,"trial_type":"categorize","trial_index":12,"time_elapsed":80492,"internal_node_id":"0.0-5.0-3.0"}},{"uniqueid":"A18I566TMVVSFQ:3CTOC39K38ROB6DPW5IXPUC7Z5EJ75","current_trial":13,"dateTime":1512442408581,"trialdata":{"rt":511,"correct":true,"stimulus":"static/img/stimuli/images5/image6.jpg","key_press":75,"trial_type":"categorize","trial_index":13,"time_elapsed":82505,"internal_node_id":"0.0-5.0-4.0"}},{"uniqueid":"A18I566TMVVSFQ:3CTOC39K38ROB6DPW5IXPUC7Z5EJ75","current_trial":14,"dateTime":1512442410789,"trialdata":{"rt":706,"correct":false,"stimulus":"static/img/stimuli/images5/image2.jpg","key_press":75,"trial_type":"categorize","trial_index":14,"time_elapsed":84713,"internal_node_id":"0.0-5.0-5.0"}},{"uniqueid":"A18I566TMVVSFQ:3CTOC39K38ROB6DPW5IXPUC7Z5EJ75","current_trial":15,"dateTime":1512442412762,"trialdata":{"rt":470,"correct":true,"stimulus":"static/img/stimuli/images5/image6.jpg","key_press":75,"trial_type":"categorize","trial_index":15,"time_elapsed":86686,"internal_node_id":"0.0-5.0-6.0"}},{"uniqueid":"A18I566TMVVSFQ:3CTOC39K38ROB6DPW5IXPUC7Z5EJ75","current_trial":16,"dateTime":1512442414894,"trialdata":{"rt":629,"correct":false,"stimulus":"static/img/stimuli/images5/image1.jpg","key_press":74,"trial_type":"categorize","trial_index":16,"time_elapsed":88818,"internal_node_id":"0.0-5.0-7.0"}},{"uniqueid":"A18I566TMVVSFQ:3CTOC39K38ROB6DPW5IXPUC7Z5EJ75","current_trial":17,"dateTime":1512442416909,"trialdata":{"rt":514,"correct":true,"stimulus":"static/img/stimuli/images5/image2.jpg","key_press":74,"trial_type":"categorize","trial_index":17,"time_elapsed":90833,"internal_node_id":"0.0-5.0-8.0"}},{"uniqueid":"A18I566TMVVSFQ:3CTOC39K38ROB6DPW5IXPUC7Z5EJ75","current_trial":18,"dateTime":1512442418993,"trialdata":{"rt":581,"correct":true,"stimulus":"static/img/stimuli/images5/image2.jpg","key_press":74,"trial_type":"categorize","trial_index":18,"time_elapsed":92917,"internal_node_id":"0.0-5.0-9.0"}},{"uniqueid":"A18I566TMVVSFQ:3CTOC39K38ROB6DPW5IXPUC7Z5EJ75","current_trial":19,"dateTime":1512442421093,"trialdata":{"rt":595,"correct":true,"stimulus":"static/img/stimuli/images5/image6.jpg","key_press":75,"trial_type":"categorize","trial_index":19,"time_elapsed":95017,"internal_node_id":"0.0-5.0-10.0"}},{"uniqueid":"A18I566TMVVSFQ:3CTOC39K38ROB6DPW5IXPUC7Z5EJ75","current_trial":20,"dateTime":1512442423031,"trialdata":{"rt":422,"correct":false,"stimulus":"static/img/stimuli/images5/image1.jpg","key_press":74,"trial_type":"categorize","trial_index":20,"time_elapsed":96955,"internal_node_id":"0.0-5.0-11.0"}},{"uniqueid":"A18I566TMVVSFQ:3CTOC39K38ROB6DPW5IXPUC7Z5EJ75","current_trial":21,"dateTime":1512442424906,"trialdata":{"rt":372,"correct":false,"stimulus":"static/img/stimuli/images5/image2.jpg","key_press":75,"trial_type":"categorize","trial_index":21,"time_elapsed":98830,"internal_node_id":"0.0-5.0-12.0"}},{"uniqueid":"A18I566TMVVSFQ:3CTOC39K38ROB6DPW5IXPUC7Z5EJ75","current_trial":22,"dateTime":1512442427009,"trialdata":{"rt":601,"correct":true,"stimulus":"static/img/stimuli/images5/image1.jpg","key_press":75,"trial_type":"categorize","trial_index":22,"time_elapsed":100933,"internal_node_id":"0.0-5.0-13.0"}},{"uniqueid":"A18I566TMVVSFQ:3CTOC39K38ROB6DPW5IXPUC7Z5EJ75","current_trial":23,"dateTime":1512442429313,"trialdata":{"rt":802,"correct":false,"stimulus":"static/img/stimuli/images5/image6.jpg","key_press":74,"trial_type":"categorize","trial_index":23,"time_elapsed":103237,"internal_node_id":"0.0-5.0-14.0"}},{"uniqueid":"A18I566TMVVSFQ:3CTOC39K38ROB6DPW5IXPUC7Z5EJ75","current_trial":24,"dateTime":1512442431257,"trialdata":{"rt":442,"correct":true,"stimulus":"static/img/stimuli/images5/image6.jpg","key_press":75,"trial_type":"categorize","trial_index":24,"time_elapsed":105181,"internal_node_id":"0.0-5.0-15.0"}},{"uniqueid":"A18I566TMVVSFQ:3CTOC39K38ROB6DPW5IXPUC7Z5EJ75","current_trial":25,"dateTime":1512442433306,"trialdata":{"rt":547,"correct":true,"stimulus":"static/img/stimuli/images5/image2.jpg","key_press":74,"trial_type":"categorize","trial_index":25,"time_elapsed":107230,"internal_node_id":"0.0-5.0-16.0"}},{"uniqueid":"A18I566TMVVSFQ:3CTOC39K38ROB6DPW5IXPUC7Z5EJ75","current_trial":26,"dateTime":1512442435421,"trialdata":{"rt":595,"correct":false,"stimulus":"static/img/stimuli/images5/image6.jpg","key_press":74,"trial_type":"categorize","trial_index":26,"time_elapsed":109345,"internal_node_id":"0.0-5.0-17.0"}},{"uniqueid":"A18I566TMVVSFQ:3CTOC39K38ROB6DPW5IXPUC7Z5EJ75","current_trial":27,"dateTime":1512442437518,"trialdata":{"rt":594,"correct":true,"stimulus":"static/img/stimuli/images5/image1.jpg","key_press":75,"trial_type":"categorize","trial_index":27,"time_elapsed":111442,"internal_node_id":"0.0-5.0-18.0"}},{"uniqueid":"A18I566TMVVSFQ:3CTOC39K38ROB6DPW5IXPUC7Z5EJ75","current_trial":28,"dateTime":1512442439653,"trialdata":{"rt":633,"correct":true,"stimulus":"static/img/stimuli/images5/image2.jpg","key_press":74,"trial_type":"categorize","trial_index":28,"time_elapsed":113577,"internal_node_id":"0.0-5.0-19.0"}},{"uniqueid":"A18I566TMVVSFQ:3CTOC39K38ROB6DPW5IXPUC7Z5EJ75","current_trial":29,"dateTime":1512442441572,"trialdata":{"rt":416,"correct":false,"stimulus":"static/img/stimuli/images5/image2.jpg","key_press":75,"trial_type":"categorize","trial_index":29,"time_elapsed":115496,"internal_node_id":"0.0-5.0-20.0"}},{"uniqueid":"A18I566TMVVSFQ:3CTOC39K38ROB6DPW5IXPUC7Z5EJ75","current_trial":30,"dateTime":1512442444410,"trialdata":{"rt":1335,"correct":false,"stimulus":"static/img/stimuli/images5/image1.jpg","key_press":74,"trial_type":"categorize","trial_index":30,"time_elapsed":118334,"internal_node_id":"0.0-5.0-21.0"}},{"uniqueid":"A18I566TMVVSFQ:3CTOC39K38ROB6DPW5IXPUC7Z5EJ75","current_trial":31,"dateTime":1512442446682,"trialdata":{"rt":769,"correct":true,"stimulus":"static/img/stimuli/images5/image6.jpg","key_press":75,"trial_type":"categorize","trial_index":31,"time_elapsed":120606,"internal_node_id":"0.0-5.0-22.0"}},{"uniqueid":"A18I566TMVVSFQ:3CTOC39K38ROB6DPW5IXPUC7Z5EJ75","current_trial":32,"dateTime":1512442449651,"trialdata":{"rt":1466,"correct":true,"stimulus":"static/img/stimuli/images5/image1.jpg","key_press":75,"trial_type":"categorize","trial_index":32,"time_elapsed":123575,"internal_node_id":"0.0-5.0-23.0"}},{"uniqueid":"A18I566TMVVSFQ:3CTOC39K38ROB6DPW5IXPUC7Z5EJ75","current_trial":33,"dateTime":1512442452049,"trialdata":{"rt":897,"correct":true,"stimulus":"static/img/stimuli/images5/image1.jpg","key_press":75,"trial_type":"categorize","trial_index":33,"time_elapsed":125973,"internal_node_id":"0.0-5.0-24.0"}},{"uniqueid":"A18I566TMVVSFQ:3CTOC39K38ROB6DPW5IXPUC7Z5EJ75","current_trial":34,"dateTime":1512442454290,"trialdata":{"rt":736,"correct":true,"stimulus":"static/img/stimuli/images5/image2.jpg","key_press":74,"trial_type":"categorize","trial_index":34,"time_elapsed":128214,"internal_node_id":"0.0-5.0-25.0"}},{"uniqueid":"A18I566TMVVSFQ:3CTOC39K38ROB6DPW5IXPUC7Z5EJ75","current_trial":35,"dateTime":1512442456521,"trialdata":{"rt":728,"correct":true,"stimulus":"static/img/stimuli/images5/image6.jpg","key_press":75,"trial_type":"categorize","trial_index":35,"time_elapsed":130445,"internal_node_id":"0.0-5.0-26.0"}},{"uniqueid":"A18I566TMVVSFQ:3CTOC39K38ROB6DPW5IXPUC7Z5EJ75","current_trial":36,"dateTime":1512442458777,"trialdata":{"rt":754,"correct":true,"stimulus":"static/img/stimuli/images5/image1.jpg","key_press":75,"trial_type":"categorize","trial_index":36,"time_elapsed":132701,"internal_node_id":"0.0-5.0-27.0"}},{"uniqueid":"A18I566TMVVSFQ:3CTOC39K38ROB6DPW5IXPUC7Z5EJ75","current_trial":37,"dateTime":1512442461113,"trialdata":{"rt":818,"correct":true,"stimulus":"static/img/stimuli/images5/image6.jpg","key_press":75,"trial_type":"categorize","trial_index":37,"time_elapsed":135037,"internal_node_id":"0.0-5.0-28.0"}},{"uniqueid":"A18I566TMVVSFQ:3CTOC39K38ROB6DPW5IXPUC7Z5EJ75","current_trial":38,"dateTime":1512442463657,"trialdata":{"rt":1043,"correct":true,"stimulus":"static/img/stimuli/images5/image2.jpg","key_press":74,"trial_type":"categorize","trial_index":38,"time_elapsed":137581,"internal_node_id":"0.0-5.0-29.0"}},{"uniqueid":"A18I566TMVVSFQ:3CTOC39K38ROB6DPW5IXPUC7Z5EJ75","current_trial":39,"dateTime":1512442466159,"trialdata":{"rt":1000,"correct":true,"stimulus":"static/img/stimuli/images5/image2.jpg","key_press":74,"trial_type":"categorize","trial_index":39,"time_elapsed":140083,"internal_node_id":"0.0-5.0-30.0"}},{"uniqueid":"A18I566TMVVSFQ:3CTOC39K38ROB6DPW5IXPUC7Z5EJ75","current_trial":40,"dateTime":1512442469163,"trialdata":{"rt":-1,"correct":false,"stimulus":"static/img/stimuli/images5/image1.jpg","key_press":-1,"trial_type":"categorize","trial_index":40,"time_elapsed":143087,"internal_node_id":"0.0-5.0-31.0"}},{"uniqueid":"A18I566TMVVSFQ:3CTOC39K38ROB6DPW5IXPUC7Z5EJ75","current_trial":41,"dateTime":1512442471160,"trialdata":{"rt":492,"correct":true,"stimulus":"static/img/stimuli/images5/image2.jpg","key_press":74,"trial_type":"categorize","trial_index":41,"time_elapsed":145084,"internal_node_id":"0.0-5.0-32.0"}},{"uniqueid":"A18I566TMVVSFQ:3CTOC39K38ROB6DPW5IXPUC7Z5EJ75","current_trial":42,"dateTime":1512442473192,"trialdata":{"rt":529,"correct":true,"stimulus":"static/img/stimuli/images5/image6.jpg","key_press":75,"trial_type":"categorize","trial_index":42,"time_elapsed":147116,"internal_node_id":"0.0-5.0-33.0"}},{"uniqueid":"A18I566TMVVSFQ:3CTOC39K38ROB6DPW5IXPUC7Z5EJ75","current_trial":43,"dateTime":1512442475364,"trialdata":{"rt":654,"correct":true,"stimulus":"static/img/stimuli/images5/image6.jpg","key_press":75,"trial_type":"categorize","trial_index":43,"time_elapsed":149288,"internal_node_id":"0.0-5.0-34.0"}},{"uniqueid":"A18I566TMVVSFQ:3CTOC39K38ROB6DPW5IXPUC7Z5EJ75","current_trial":44,"dateTime":1512442477747,"trialdata":{"rt":880,"correct":true,"stimulus":"static/img/stimuli/images5/image1.jpg","key_press":75,"trial_type":"categorize","trial_index":44,"time_elapsed":151671,"internal_node_id":"0.0-5.0-35.0"}},{"uniqueid":"A18I566TMVVSFQ:3CTOC39K38ROB6DPW5IXPUC7Z5EJ75","current_trial":45,"dateTime":1512442479803,"trialdata":{"rt":554,"correct":true,"stimulus":"static/img/stimuli/images5/image6.jpg","key_press":75,"trial_type":"categorize","trial_index":45,"time_elapsed":153727,"internal_node_id":"0.0-5.0-36.0"}},{"uniqueid":"A18I566TMVVSFQ:3CTOC39K38ROB6DPW5IXPUC7Z5EJ75","current_trial":46,"dateTime":1512442482013,"trialdata":{"rt":708,"correct":true,"stimulus":"static/img/stimuli/images5/image2.jpg","key_press":74,"trial_type":"categorize","trial_index":46,"time_elapsed":155937,"internal_node_id":"0.0-5.0-37.0"}},{"uniqueid":"A18I566TMVVSFQ:3CTOC39K38ROB6DPW5IXPUC7Z5EJ75","current_trial":47,"dateTime":1512442484151,"trialdata":{"rt":636,"correct":true,"stimulus":"static/img/stimuli/images5/image1.jpg","key_press":75,"trial_type":"categorize","trial_index":47,"time_elapsed":158075,"internal_node_id":"0.0-5.0-38.0"}},{"uniqueid":"A18I566TMVVSFQ:3CTOC39K38ROB6DPW5IXPUC7Z5EJ75","current_trial":48,"dateTime":1512442487153,"trialdata":{"view_history":"[{\"page_index\":0,\"viewing_time\":2001}]","rt":2001,"trial_type":"instructions","trial_index":48,"time_elapsed":161077,"internal_node_id":"0.0-6.0"}},{"uniqueid":"A18I566TMVVSFQ:3CTOC39K38ROB6DPW5IXPUC7Z5EJ75","current_trial":49,"dateTime":1512442499139,"trialdata":{"view_history":"[{\"page_index\":0,\"viewing_time\":10984}]","rt":10985,"trial_type":"instructions","trial_index":49,"time_elapsed":173063,"internal_node_id":"0.0-7.0"}},{"uniqueid":"A18I566TMVVSFQ:3CTOC39K38ROB6DPW5IXPUC7Z5EJ75","current_trial":50,"dateTime":1512442501678,"trialdata":{"rt":1034,"correct":false,"stimulus":"static/img/stimuli/images12/image6.jpg","key_press":74,"trial_type":"categorize","trial_index":50,"time_elapsed":175602,"internal_node_id":"0.0-8.0-0.0"}},{"uniqueid":"A18I566TMVVSFQ:3CTOC39K38ROB6DPW5IXPUC7Z5EJ75","current_trial":51,"dateTime":1512442503736,"trialdata":{"rt":555,"correct":false,"stimulus":"static/img/stimuli/images12/image2.jpg","key_press":74,"trial_type":"categorize","trial_index":51,"time_elapsed":177659,"internal_node_id":"0.0-8.0-1.0"}},{"uniqueid":"A18I566TMVVSFQ:3CTOC39K38ROB6DPW5IXPUC7Z5EJ75","current_trial":52,"dateTime":1512442505636,"trialdata":{"rt":398,"correct":false,"stimulus":"static/img/stimuli/images12/image4.jpg","key_press":76,"trial_type":"categorize","trial_index":52,"time_elapsed":179560,"internal_node_id":"0.0-8.0-2.0"}},{"uniqueid":"A18I566TMVVSFQ:3CTOC39K38ROB6DPW5IXPUC7Z5EJ75","current_trial":53,"dateTime":1512442507671,"trialdata":{"rt":533,"correct":false,"stimulus":"static/img/stimuli/images12/image1.jpg","key_press":76,"trial_type":"categorize","trial_index":53,"time_elapsed":181595,"internal_node_id":"0.0-8.0-3.0"}},{"uniqueid":"A18I566TMVVSFQ:3CTOC39K38ROB6DPW5IXPUC7Z5EJ75","current_trial":54,"dateTime":1512442509767,"trialdata":{"rt":594,"correct":true,"stimulus":"static/img/stimuli/images12/image3.jpg","key_press":75,"trial_type":"categorize","trial_index":54,"time_elapsed":183691,"internal_node_id":"0.0-8.0-4.0"}},{"uniqueid":"A18I566TMVVSFQ:3CTOC39K38ROB6DPW5IXPUC7Z5EJ75","current_trial":55,"dateTime":1512442512047,"trialdata":{"rt":777,"correct":true,"stimulus":"static/img/stimuli/images12/image5.jpg","key_press":75,"trial_type":"categorize","trial_index":55,"time_elapsed":185971,"internal_node_id":"0.0-8.0-5.0"}},{"uniqueid":"A18I566TMVVSFQ:3CTOC39K38ROB6DPW5IXPUC7Z5EJ75","current_trial":56,"dateTime":1512442514000,"trialdata":{"rt":450,"correct":true,"stimulus":"static/img/stimuli/images12/image5.jpg","key_press":75,"trial_type":"categorize","trial_index":56,"time_elapsed":187924,"internal_node_id":"0.0-8.0-6.0"}},{"uniqueid":"A18I566TMVVSFQ:3CTOC39K38ROB6DPW5IXPUC7Z5EJ75","current_trial":57,"dateTime":1512442516168,"trialdata":{"rt":665,"correct":false,"stimulus":"static/img/stimuli/images12/image1.jpg","key_press":76,"trial_type":"categorize","trial_index":57,"time_elapsed":190092,"internal_node_id":"0.0-8.0-7.0"}},{"uniqueid":"A18I566TMVVSFQ:3CTOC39K38ROB6DPW5IXPUC7Z5EJ75","current_trial":58,"dateTime":1512442518091,"trialdata":{"rt":422,"correct":false,"stimulus":"static/img/stimuli/images12/image4.jpg","key_press":75,"trial_type":"categorize","trial_index":58,"time_elapsed":192015,"internal_node_id":"0.0-8.0-8.0"}},{"uniqueid":"A18I566TMVVSFQ:3CTOC39K38ROB6DPW5IXPUC7Z5EJ75","current_trial":59,"dateTime":1512442520088,"trialdata":{"rt":494,"correct":true,"stimulus":"static/img/stimuli/images12/image3.jpg","key_press":75,"trial_type":"categorize","trial_index":59,"time_elapsed":194012,"internal_node_id":"0.0-8.0-9.0"}},{"uniqueid":"A18I566TMVVSFQ:3CTOC39K38ROB6DPW5IXPUC7Z5EJ75","current_trial":60,"dateTime":1512442522103,"trialdata":{"rt":513,"correct":false,"stimulus":"static/img/stimuli/images12/image2.jpg","key_press":75,"trial_type":"categorize","trial_index":60,"time_elapsed":196027,"internal_node_id":"0.0-8.0-10.0"}},{"uniqueid":"A18I566TMVVSFQ:3CTOC39K38ROB6DPW5IXPUC7Z5EJ75","current_trial":61,"dateTime":1512442524100,"trialdata":{"rt":494,"correct":false,"stimulus":"static/img/stimuli/images12/image6.jpg","key_press":75,"trial_type":"categorize","trial_index":61,"time_elapsed":198024,"internal_node_id":"0.0-8.0-11.0"}},{"uniqueid":"A18I566TMVVSFQ:3CTOC39K38ROB6DPW5IXPUC7Z5EJ75","current_trial":62,"dateTime":1512442526496,"trialdata":{"rt":893,"correct":false,"stimulus":"static/img/stimuli/images12/image3.jpg","key_press":74,"trial_type":"categorize","trial_index":62,"time_elapsed":200420,"internal_node_id":"0.0-8.0-12.0"}},{"uniqueid":"A18I566TMVVSFQ:3CTOC39K38ROB6DPW5IXPUC7Z5EJ75","current_trial":63,"dateTime":1512442528865,"trialdata":{"rt":862,"correct":false,"stimulus":"static/img/stimuli/images12/image6.jpg","key_press":74,"trial_type":"categorize","trial_index":63,"time_elapsed":202789,"internal_node_id":"0.0-8.0-13.0"}},{"uniqueid":"A18I566TMVVSFQ:3CTOC39K38ROB6DPW5IXPUC7Z5EJ75","current_trial":64,"dateTime":1512442530921,"trialdata":{"rt":555,"correct":true,"stimulus":"static/img/stimuli/images12/image5.jpg","key_press":75,"trial_type":"categorize","trial_index":64,"time_elapsed":204845,"internal_node_id":"0.0-8.0-14.0"}},{"uniqueid":"A18I566TMVVSFQ:3CTOC39K38ROB6DPW5IXPUC7Z5EJ75","current_trial":65,"dateTime":1512442533205,"trialdata":{"rt":781,"correct":false,"stimulus":"static/img/stimuli/images12/image4.jpg","key_press":76,"trial_type":"categorize","trial_index":65,"time_elapsed":207129,"internal_node_id":"0.0-8.0-15.0"}},{"uniqueid":"A18I566TMVVSFQ:3CTOC39K38ROB6DPW5IXPUC7Z5EJ75","current_trial":66,"dateTime":1512442536106,"trialdata":{"rt":1387,"correct":false,"stimulus":"static/img/stimuli/images12/image2.jpg","key_press":74,"trial_type":"categorize","trial_index":66,"time_elapsed":210030,"internal_node_id":"0.0-8.0-16.0"}},{"uniqueid":"A18I566TMVVSFQ:3CTOC39K38ROB6DPW5IXPUC7Z5EJ75","current_trial":67,"dateTime":1512442538504,"trialdata":{"rt":891,"correct":true,"stimulus":"static/img/stimuli/images12/image1.jpg","key_press":74,"trial_type":"categorize","trial_index":67,"time_elapsed":212428,"internal_node_id":"0.0-8.0-17.0"}},{"uniqueid":"A18I566TMVVSFQ:3CTOC39K38ROB6DPW5IXPUC7Z5EJ75","current_trial":68,"dateTime":1512442540774,"trialdata":{"rt":768,"correct":false,"stimulus":"static/img/stimuli/images12/image6.jpg","key_press":74,"trial_type":"categorize","trial_index":68,"time_elapsed":214698,"internal_node_id":"0.0-8.0-18.0"}},{"uniqueid":"A18I566TMVVSFQ:3CTOC39K38ROB6DPW5IXPUC7Z5EJ75","current_trial":69,"dateTime":1512442542861,"trialdata":{"rt":585,"correct":true,"stimulus":"static/img/stimuli/images12/image2.jpg","key_press":76,"trial_type":"categorize","trial_index":69,"time_elapsed":216784,"internal_node_id":"0.0-8.0-19.0"}},{"uniqueid":"A18I566TMVVSFQ:3CTOC39K38ROB6DPW5IXPUC7Z5EJ75","current_trial":70,"dateTime":1512442545105,"trialdata":{"rt":743,"correct":false,"stimulus":"static/img/stimuli/images12/image4.jpg","key_press":75,"trial_type":"categorize","trial_index":70,"time_elapsed":219029,"internal_node_id":"0.0-8.0-20.0"}},{"uniqueid":"A18I566TMVVSFQ:3CTOC39K38ROB6DPW5IXPUC7Z5EJ75","current_trial":71,"dateTime":1512442547251,"trialdata":{"rt":644,"correct":false,"stimulus":"static/img/stimuli/images12/image1.jpg","key_press":76,"trial_type":"categorize","trial_index":71,"time_elapsed":221175,"internal_node_id":"0.0-8.0-21.0"}},{"uniqueid":"A18I566TMVVSFQ:3CTOC39K38ROB6DPW5IXPUC7Z5EJ75","current_trial":72,"dateTime":1512442549717,"trialdata":{"rt":963,"correct":false,"stimulus":"static/img/stimuli/images12/image3.jpg","key_press":76,"trial_type":"categorize","trial_index":72,"time_elapsed":223640,"internal_node_id":"0.0-8.0-22.0"}},{"uniqueid":"A18I566TMVVSFQ:3CTOC39K38ROB6DPW5IXPUC7Z5EJ75","current_trial":73,"dateTime":1512442551645,"trialdata":{"rt":426,"correct":true,"stimulus":"static/img/stimuli/images12/image5.jpg","key_press":75,"trial_type":"categorize","trial_index":73,"time_elapsed":225569,"internal_node_id":"0.0-8.0-23.0"}},{"uniqueid":"A18I566TMVVSFQ:3CTOC39K38ROB6DPW5IXPUC7Z5EJ75","current_trial":74,"dateTime":1512442554378,"trialdata":{"rt":1231,"correct":true,"stimulus":"static/img/stimuli/images12/image1.jpg","key_press":74,"trial_type":"categorize","trial_index":74,"time_elapsed":228302,"internal_node_id":"0.0-8.0-24.0"}},{"uniqueid":"A18I566TMVVSFQ:3CTOC39K38ROB6DPW5IXPUC7Z5EJ75","current_trial":75,"dateTime":1512442556874,"trialdata":{"rt":990,"correct":true,"stimulus":"static/img/stimuli/images12/image6.jpg","key_press":76,"trial_type":"categorize","trial_index":75,"time_elapsed":230798,"internal_node_id":"0.0-8.0-25.0"}},{"uniqueid":"A18I566TMVVSFQ:3CTOC39K38ROB6DPW5IXPUC7Z5EJ75","current_trial":76,"dateTime":1512442559242,"trialdata":{"rt":864,"correct":false,"stimulus":"static/img/stimuli/images12/image3.jpg","key_press":76,"trial_type":"categorize","trial_index":76,"time_elapsed":233166,"internal_node_id":"0.0-8.0-26.0"}},{"uniqueid":"A18I566TMVVSFQ:3CTOC39K38ROB6DPW5IXPUC7Z5EJ75","current_trial":77,"dateTime":1512442561688,"trialdata":{"rt":946,"correct":true,"stimulus":"static/img/stimuli/images12/image2.jpg","key_press":76,"trial_type":"categorize","trial_index":77,"time_elapsed":235612,"internal_node_id":"0.0-8.0-27.0"}},{"uniqueid":"A18I566TMVVSFQ:3CTOC39K38ROB6DPW5IXPUC7Z5EJ75","current_trial":78,"dateTime":1512442563884,"trialdata":{"rt":695,"correct":true,"stimulus":"static/img/stimuli/images12/image5.jpg","key_press":75,"trial_type":"categorize","trial_index":78,"time_elapsed":237808,"internal_node_id":"0.0-8.0-28.0"}},{"uniqueid":"A18I566TMVVSFQ:3CTOC39K38ROB6DPW5IXPUC7Z5EJ75","current_trial":79,"dateTime":1512442566477,"trialdata":{"rt":1091,"correct":true,"stimulus":"static/img/stimuli/images12/image4.jpg","key_press":74,"trial_type":"categorize","trial_index":79,"time_elapsed":240401,"internal_node_id":"0.0-8.0-29.0"}},{"uniqueid":"A18I566TMVVSFQ:3CTOC39K38ROB6DPW5IXPUC7Z5EJ75","current_trial":80,"dateTime":1512442569166,"trialdata":{"rt":1186,"correct":false,"stimulus":"static/img/stimuli/images12/image4.jpg","key_press":76,"trial_type":"categorize","trial_index":80,"time_elapsed":243090,"internal_node_id":"0.0-8.0-30.0"}},{"uniqueid":"A18I566TMVVSFQ:3CTOC39K38ROB6DPW5IXPUC7Z5EJ75","current_trial":81,"dateTime":1512442571429,"trialdata":{"rt":757,"correct":true,"stimulus":"static/img/stimuli/images12/image5.jpg","key_press":75,"trial_type":"categorize","trial_index":81,"time_elapsed":245353,"internal_node_id":"0.0-8.0-31.0"}},{"uniqueid":"A18I566TMVVSFQ:3CTOC39K38ROB6DPW5IXPUC7Z5EJ75","current_trial":82,"dateTime":1512442574432,"trialdata":{"rt":-1,"correct":false,"stimulus":"static/img/stimuli/images12/image3.jpg","key_press":-1,"trial_type":"categorize","trial_index":82,"time_elapsed":248356,"internal_node_id":"0.0-8.0-32.0"}},{"uniqueid":"A18I566TMVVSFQ:3CTOC39K38ROB6DPW5IXPUC7Z5EJ75","current_trial":83,"dateTime":1512442576921,"trialdata":{"rt":986,"correct":true,"stimulus":"static/img/stimuli/images12/image6.jpg","key_press":76,"trial_type":"categorize","trial_index":83,"time_elapsed":250845,"internal_node_id":"0.0-8.0-33.0"}},{"uniqueid":"A18I566TMVVSFQ:3CTOC39K38ROB6DPW5IXPUC7Z5EJ75","current_trial":84,"dateTime":1512442579574,"trialdata":{"rt":1143,"correct":false,"stimulus":"static/img/stimuli/images12/image1.jpg","key_press":76,"trial_type":"categorize","trial_index":84,"time_elapsed":253498,"internal_node_id":"0.0-8.0-34.0"}},{"uniqueid":"A18I566TMVVSFQ:3CTOC39K38ROB6DPW5IXPUC7Z5EJ75","current_trial":85,"dateTime":1512442582576,"trialdata":{"rt":-1,"correct":false,"stimulus":"static/img/stimuli/images12/image6.jpg","key_press":-1,"trial_type":"categorize","trial_index":85,"time_elapsed":256500,"internal_node_id":"0.0-8.0-35.0"}},{"uniqueid":"A18I566TMVVSFQ:3CTOC39K38ROB6DPW5IXPUC7Z5EJ75","current_trial":86,"dateTime":1512442584718,"trialdata":{"rt":638,"correct":false,"stimulus":"static/img/stimuli/images12/image2.jpg","key_press":75,"trial_type":"categorize","trial_index":86,"time_elapsed":258642,"internal_node_id":"0.0-8.0-36.0"}},{"uniqueid":"A18I566TMVVSFQ:3CTOC39K38ROB6DPW5IXPUC7Z5EJ75","current_trial":87,"dateTime":1512442587727,"trialdata":{"rt":-1,"correct":false,"stimulus":"static/img/stimuli/images12/image3.jpg","key_press":-1,"trial_type":"categorize","trial_index":87,"time_elapsed":261651,"internal_node_id":"0.0-8.0-37.0"}},{"uniqueid":"A18I566TMVVSFQ:3CTOC39K38ROB6DPW5IXPUC7Z5EJ75","current_trial":88,"dateTime":1512442589976,"trialdata":{"rt":746,"correct":true,"stimulus":"static/img/stimuli/images12/image2.jpg","key_press":76,"trial_type":"categorize","trial_index":88,"time_elapsed":263900,"internal_node_id":"0.0-8.0-38.0"}},{"uniqueid":"A18I566TMVVSFQ:3CTOC39K38ROB6DPW5IXPUC7Z5EJ75","current_trial":89,"dateTime":1512442592397,"trialdata":{"rt":918,"correct":true,"stimulus":"static/img/stimuli/images12/image1.jpg","key_press":74,"trial_type":"categorize","trial_index":89,"time_elapsed":266321,"internal_node_id":"0.0-8.0-39.0"}},{"uniqueid":"A18I566TMVVSFQ:3CTOC39K38ROB6DPW5IXPUC7Z5EJ75","current_trial":90,"dateTime":1512442594668,"trialdata":{"rt":767,"correct":true,"stimulus":"static/img/stimuli/images12/image4.jpg","key_press":74,"trial_type":"categorize","trial_index":90,"time_elapsed":268592,"internal_node_id":"0.0-8.0-40.0"}},{"uniqueid":"A18I566TMVVSFQ:3CTOC39K38ROB6DPW5IXPUC7Z5EJ75","current_trial":91,"dateTime":1512442597329,"trialdata":{"rt":1158,"correct":true,"stimulus":"static/img/stimuli/images12/image4.jpg","key_press":74,"trial_type":"categorize","trial_index":91,"time_elapsed":271253,"internal_node_id":"0.0-8.0-41.0"}},{"uniqueid":"A18I566TMVVSFQ:3CTOC39K38ROB6DPW5IXPUC7Z5EJ75","current_trial":92,"dateTime":1512442599462,"trialdata":{"rt":630,"correct":true,"stimulus":"static/img/stimuli/images12/image5.jpg","key_press":75,"trial_type":"categorize","trial_index":92,"time_elapsed":273386,"internal_node_id":"0.0-8.0-42.0"}},{"uniqueid":"A18I566TMVVSFQ:3CTOC39K38ROB6DPW5IXPUC7Z5EJ75","current_trial":93,"dateTime":1512442601784,"trialdata":{"rt":817,"correct":false,"stimulus":"static/img/stimuli/images12/image3.jpg","key_press":76,"trial_type":"categorize","trial_index":93,"time_elapsed":275708,"internal_node_id":"0.0-8.0-43.0"}},{"uniqueid":"A18I566TMVVSFQ:3CTOC39K38ROB6DPW5IXPUC7Z5EJ75","current_trial":94,"dateTime":1512442604273,"trialdata":{"rt":987,"correct":true,"stimulus":"static/img/stimuli/images12/image6.jpg","key_press":76,"trial_type":"categorize","trial_index":94,"time_elapsed":278197,"internal_node_id":"0.0-8.0-44.0"}},{"uniqueid":"A18I566TMVVSFQ:3CTOC39K38ROB6DPW5IXPUC7Z5EJ75","current_trial":95,"dateTime":1512442606347,"trialdata":{"rt":573,"correct":true,"stimulus":"static/img/stimuli/images12/image2.jpg","key_press":76,"trial_type":"categorize","trial_index":95,"time_elapsed":280271,"internal_node_id":"0.0-8.0-45.0"}},{"uniqueid":"A18I566TMVVSFQ:3CTOC39K38ROB6DPW5IXPUC7Z5EJ75","current_trial":96,"dateTime":1512442608301,"trialdata":{"rt":437,"correct":true,"stimulus":"static/img/stimuli/images12/image5.jpg","key_press":75,"trial_type":"categorize","trial_index":96,"time_elapsed":282225,"internal_node_id":"0.0-8.0-46.0"}},{"uniqueid":"A18I566TMVVSFQ:3CTOC39K38ROB6DPW5IXPUC7Z5EJ75","current_trial":97,"dateTime":1512442610966,"trialdata":{"rt":1163,"correct":true,"stimulus":"static/img/stimuli/images12/image1.jpg","key_press":74,"trial_type":"categorize","trial_index":97,"time_elapsed":284890,"internal_node_id":"0.0-8.0-47.0"}},{"uniqueid":"A18I566TMVVSFQ:3CTOC39K38ROB6DPW5IXPUC7Z5EJ75","current_trial":98,"dateTime":1512442613405,"trialdata":{"rt":934,"correct":false,"stimulus":"static/img/stimuli/images12/image4.jpg","key_press":76,"trial_type":"categorize","trial_index":98,"time_elapsed":287329,"internal_node_id":"0.0-8.0-48.0"}},{"uniqueid":"A18I566TMVVSFQ:3CTOC39K38ROB6DPW5IXPUC7Z5EJ75","current_trial":99,"dateTime":1512442615563,"trialdata":{"rt":656,"correct":true,"stimulus":"static/img/stimuli/images12/image5.jpg","key_press":75,"trial_type":"categorize","trial_index":99,"time_elapsed":289487,"internal_node_id":"0.0-8.0-49.0"}},{"uniqueid":"A18I566TMVVSFQ:3CTOC39K38ROB6DPW5IXPUC7Z5EJ75","current_trial":100,"dateTime":1512442618088,"trialdata":{"rt":1022,"correct":false,"stimulus":"static/img/stimuli/images12/image6.jpg","key_press":74,"trial_type":"categorize","trial_index":100,"time_elapsed":292012,"internal_node_id":"0.0-8.0-50.0"}},{"uniqueid":"A18I566TMVVSFQ:3CTOC39K38ROB6DPW5IXPUC7Z5EJ75","current_trial":101,"dateTime":1512442620640,"trialdata":{"rt":1049,"correct":true,"stimulus":"static/img/stimuli/images12/image1.jpg","key_press":74,"trial_type":"categorize","trial_index":101,"time_elapsed":294564,"internal_node_id":"0.0-8.0-51.0"}},{"uniqueid":"A18I566TMVVSFQ:3CTOC39K38ROB6DPW5IXPUC7Z5EJ75","current_trial":102,"dateTime":1512442622992,"trialdata":{"rt":850,"correct":false,"stimulus":"static/img/stimuli/images12/image3.jpg","key_press":76,"trial_type":"categorize","trial_index":102,"time_elapsed":296916,"internal_node_id":"0.0-8.0-52.0"}},{"uniqueid":"A18I566TMVVSFQ:3CTOC39K38ROB6DPW5IXPUC7Z5EJ75","current_trial":103,"dateTime":1512442625543,"trialdata":{"rt":1050,"correct":false,"stimulus":"static/img/stimuli/images12/image2.jpg","key_press":74,"trial_type":"categorize","trial_index":103,"time_elapsed":299467,"internal_node_id":"0.0-8.0-53.0"}},{"uniqueid":"A18I566TMVVSFQ:3CTOC39K38ROB6DPW5IXPUC7Z5EJ75","current_trial":104,"dateTime":1512442627692,"trialdata":{"rt":646,"correct":false,"stimulus":"static/img/stimuli/images12/image2.jpg","key_press":75,"trial_type":"categorize","trial_index":104,"time_elapsed":301616,"internal_node_id":"0.0-8.0-54.0"}},{"uniqueid":"A18I566TMVVSFQ:3CTOC39K38ROB6DPW5IXPUC7Z5EJ75","current_trial":105,"dateTime":1512442629818,"trialdata":{"rt":625,"correct":false,"stimulus":"static/img/stimuli/images12/image3.jpg","key_press":76,"trial_type":"categorize","trial_index":105,"time_elapsed":303742,"internal_node_id":"0.0-8.0-55.0"}},{"uniqueid":"A18I566TMVVSFQ:3CTOC39K38ROB6DPW5IXPUC7Z5EJ75","current_trial":106,"dateTime":1512442632340,"trialdata":{"rt":1018,"correct":true,"stimulus":"static/img/stimuli/images12/image2.jpg","key_press":76,"trial_type":"categorize","trial_index":106,"time_elapsed":306264,"internal_node_id":"0.0-8.0-56.0"}},{"uniqueid":"A18I566TMVVSFQ:3CTOC39K38ROB6DPW5IXPUC7Z5EJ75","current_trial":107,"dateTime":1512442634859,"trialdata":{"rt":1015,"correct":true,"stimulus":"static/img/stimuli/images12/image1.jpg","key_press":74,"trial_type":"categorize","trial_index":107,"time_elapsed":308783,"internal_node_id":"0.0-8.0-57.0"}},{"uniqueid":"A18I566TMVVSFQ:3CTOC39K38ROB6DPW5IXPUC7Z5EJ75","current_trial":108,"dateTime":1512442637571,"trialdata":{"rt":1210,"correct":false,"stimulus":"static/img/stimuli/images12/image4.jpg","key_press":76,"trial_type":"categorize","trial_index":108,"time_elapsed":311495,"internal_node_id":"0.0-8.0-58.0"}},{"uniqueid":"A18I566TMVVSFQ:3CTOC39K38ROB6DPW5IXPUC7Z5EJ75","current_trial":109,"dateTime":1512442639784,"trialdata":{"rt":709,"correct":true,"stimulus":"static/img/stimuli/images12/image5.jpg","key_press":75,"trial_type":"categorize","trial_index":109,"time_elapsed":313708,"internal_node_id":"0.0-8.0-59.0"}},{"uniqueid":"A18I566TMVVSFQ:3CTOC39K38ROB6DPW5IXPUC7Z5EJ75","current_trial":110,"dateTime":1512442642787,"trialdata":{"rt":-1,"correct":false,"stimulus":"static/img/stimuli/images12/image3.jpg","key_press":-1,"trial_type":"categorize","trial_index":110,"time_elapsed":316711,"internal_node_id":"0.0-8.0-60.0"}},{"uniqueid":"A18I566TMVVSFQ:3CTOC39K38ROB6DPW5IXPUC7Z5EJ75","current_trial":111,"dateTime":1512442645060,"trialdata":{"rt":769,"correct":true,"stimulus":"static/img/stimuli/images12/image6.jpg","key_press":76,"trial_type":"categorize","trial_index":111,"time_elapsed":318984,"internal_node_id":"0.0-8.0-61.0"}},{"uniqueid":"A18I566TMVVSFQ:3CTOC39K38ROB6DPW5IXPUC7Z5EJ75","current_trial":112,"dateTime":1512442647183,"trialdata":{"rt":621,"correct":true,"stimulus":"static/img/stimuli/images12/image6.jpg","key_press":76,"trial_type":"categorize","trial_index":112,"time_elapsed":321107,"internal_node_id":"0.0-8.0-62.0"}},{"uniqueid":"A18I566TMVVSFQ:3CTOC39K38ROB6DPW5IXPUC7Z5EJ75","current_trial":113,"dateTime":1512442649312,"trialdata":{"rt":626,"correct":true,"stimulus":"static/img/stimuli/images12/image5.jpg","key_press":75,"trial_type":"categorize","trial_index":113,"time_elapsed":323236,"internal_node_id":"0.0-8.0-63.0"}},{"uniqueid":"A18I566TMVVSFQ:3CTOC39K38ROB6DPW5IXPUC7Z5EJ75","current_trial":114,"dateTime":1512442651580,"trialdata":{"rt":765,"correct":true,"stimulus":"static/img/stimuli/images12/image1.jpg","key_press":74,"trial_type":"categorize","trial_index":114,"time_elapsed":325504,"internal_node_id":"0.0-8.0-64.0"}},{"uniqueid":"A18I566TMVVSFQ:3CTOC39K38ROB6DPW5IXPUC7Z5EJ75","current_trial":115,"dateTime":1512442653715,"trialdata":{"rt":634,"correct":true,"stimulus":"static/img/stimuli/images12/image5.jpg","key_press":75,"trial_type":"categorize","trial_index":115,"time_elapsed":327639,"internal_node_id":"0.0-8.0-65.0"}},{"uniqueid":"A18I566TMVVSFQ:3CTOC39K38ROB6DPW5IXPUC7Z5EJ75","current_trial":116,"dateTime":1512442655979,"trialdata":{"rt":762,"correct":false,"stimulus":"static/img/stimuli/images12/image4.jpg","key_press":76,"trial_type":"categorize","trial_index":116,"time_elapsed":329903,"internal_node_id":"0.0-8.0-66.0"}},{"uniqueid":"A18I566TMVVSFQ:3CTOC39K38ROB6DPW5IXPUC7Z5EJ75","current_trial":117,"dateTime":1512442658235,"trialdata":{"rt":754,"correct":true,"stimulus":"static/img/stimuli/images12/image2.jpg","key_press":76,"trial_type":"categorize","trial_index":117,"time_elapsed":332159,"internal_node_id":"0.0-8.0-67.0"}},{"uniqueid":"A18I566TMVVSFQ:3CTOC39K38ROB6DPW5IXPUC7Z5EJ75","current_trial":118,"dateTime":1512442660487,"trialdata":{"rt":747,"correct":true,"stimulus":"static/img/stimuli/images12/image1.jpg","key_press":74,"trial_type":"categorize","trial_index":118,"time_elapsed":334411,"internal_node_id":"0.0-8.0-68.0"}},{"uniqueid":"A18I566TMVVSFQ:3CTOC39K38ROB6DPW5IXPUC7Z5EJ75","current_trial":119,"dateTime":1512442662656,"trialdata":{"rt":667,"correct":false,"stimulus":"static/img/stimuli/images12/image4.jpg","key_press":76,"trial_type":"categorize","trial_index":119,"time_elapsed":336580,"internal_node_id":"0.0-8.0-69.0"}},{"uniqueid":"A18I566TMVVSFQ:3CTOC39K38ROB6DPW5IXPUC7Z5EJ75","current_trial":120,"dateTime":1512442664907,"trialdata":{"rt":750,"correct":false,"stimulus":"static/img/stimuli/images12/image3.jpg","key_press":76,"trial_type":"categorize","trial_index":120,"time_elapsed":338831,"internal_node_id":"0.0-8.0-70.0"}},{"uniqueid":"A18I566TMVVSFQ:3CTOC39K38ROB6DPW5IXPUC7Z5EJ75","current_trial":121,"dateTime":1512442667426,"trialdata":{"rt":993,"correct":true,"stimulus":"static/img/stimuli/images12/image6.jpg","key_press":76,"trial_type":"categorize","trial_index":121,"time_elapsed":341350,"internal_node_id":"0.0-8.0-71.0"}},{"uniqueid":"A18I566TMVVSFQ:3CTOC39K38ROB6DPW5IXPUC7Z5EJ75","current_trial":122,"dateTime":1512442669751,"trialdata":{"rt":824,"correct":false,"stimulus":"static/img/stimuli/images12/image3.jpg","key_press":74,"trial_type":"categorize","trial_index":122,"time_elapsed":343675,"internal_node_id":"0.0-8.0-72.0"}},{"uniqueid":"A18I566TMVVSFQ:3CTOC39K38ROB6DPW5IXPUC7Z5EJ75","current_trial":123,"dateTime":1512442671845,"trialdata":{"rt":591,"correct":true,"stimulus":"static/img/stimuli/images12/image2.jpg","key_press":76,"trial_type":"categorize","trial_index":123,"time_elapsed":345769,"internal_node_id":"0.0-8.0-73.0"}},{"uniqueid":"A18I566TMVVSFQ:3CTOC39K38ROB6DPW5IXPUC7Z5EJ75","current_trial":124,"dateTime":1512442674202,"trialdata":{"rt":852,"correct":true,"stimulus":"static/img/stimuli/images12/image4.jpg","key_press":74,"trial_type":"categorize","trial_index":124,"time_elapsed":348126,"internal_node_id":"0.0-8.0-74.0"}},{"uniqueid":"A18I566TMVVSFQ:3CTOC39K38ROB6DPW5IXPUC7Z5EJ75","current_trial":125,"dateTime":1512442676333,"trialdata":{"rt":629,"correct":true,"stimulus":"static/img/stimuli/images12/image1.jpg","key_press":74,"trial_type":"categorize","trial_index":125,"time_elapsed":350257,"internal_node_id":"0.0-8.0-75.0"}},{"uniqueid":"A18I566TMVVSFQ:3CTOC39K38ROB6DPW5IXPUC7Z5EJ75","current_trial":126,"dateTime":1512442678554,"trialdata":{"rt":710,"correct":true,"stimulus":"static/img/stimuli/images12/image5.jpg","key_press":75,"trial_type":"categorize","trial_index":126,"time_elapsed":352478,"internal_node_id":"0.0-8.0-76.0"}},{"uniqueid":"A18I566TMVVSFQ:3CTOC39K38ROB6DPW5IXPUC7Z5EJ75","current_trial":127,"dateTime":1512442681588,"trialdata":{"rt":-1,"correct":false,"stimulus":"static/img/stimuli/images12/image5.jpg","key_press":-1,"trial_type":"categorize","trial_index":127,"time_elapsed":355512,"internal_node_id":"0.0-8.0-77.0"}},{"uniqueid":"A18I566TMVVSFQ:3CTOC39K38ROB6DPW5IXPUC7Z5EJ75","current_trial":128,"dateTime":1512442806313,"trialdata":{"view_history":"[{\"page_index\":0,\"viewing_time\":123723}]","rt":123724,"trial_type":"instructions","trial_index":128,"time_elapsed":480237,"internal_node_id":"0.0-9.0"}},{"uniqueid":"A18I566TMVVSFQ:3CTOC39K38ROB6DPW5IXPUC7Z5EJ75","current_trial":129,"dateTime":1512442816540,"trialdata":{"view_history":"[{\"page_index\":0,\"viewing_time\":9226}]","rt":9226,"trial_type":"instructions","trial_index":129,"time_elapsed":490464,"internal_node_id":"0.0-10.0"}},{"uniqueid":"A18I566TMVVSFQ:3CTOC39K38ROB6DPW5IXPUC7Z5EJ75","current_trial":130,"dateTime":1512442818573,"trialdata":{"rt":530,"correct":true,"stimulus":"static/img/stimuli/images18/image1.jpg","key_press":74,"trial_type":"categorize","trial_index":130,"time_elapsed":492497,"internal_node_id":"0.0-11.0-0.0"}},{"uniqueid":"A18I566TMVVSFQ:3CTOC39K38ROB6DPW5IXPUC7Z5EJ75","current_trial":131,"dateTime":1512442820751,"trialdata":{"rt":664,"correct":false,"stimulus":"static/img/stimuli/images18/image4.jpg","key_press":75,"trial_type":"categorize","trial_index":131,"time_elapsed":494675,"internal_node_id":"0.0-11.0-1.0"}},{"uniqueid":"A18I566TMVVSFQ:3CTOC39K38ROB6DPW5IXPUC7Z5EJ75","current_trial":132,"dateTime":1512442823194,"trialdata":{"rt":940,"correct":true,"stimulus":"static/img/stimuli/images18/image6.jpg","key_press":75,"trial_type":"categorize","trial_index":132,"time_elapsed":497118,"internal_node_id":"0.0-11.0-2.0"}},{"uniqueid":"A18I566TMVVSFQ:3CTOC39K38ROB6DPW5IXPUC7Z5EJ75","current_trial":133,"dateTime":1512442825726,"trialdata":{"rt":1030,"correct":true,"stimulus":"static/img/stimuli/images18/image3.jpg","key_press":75,"trial_type":"categorize","trial_index":133,"time_elapsed":499650,"internal_node_id":"0.0-11.0-3.0"}},{"uniqueid":"A18I566TMVVSFQ:3CTOC39K38ROB6DPW5IXPUC7Z5EJ75","current_trial":134,"dateTime":1512442828189,"trialdata":{"rt":960,"correct":false,"stimulus":"static/img/stimuli/images18/image5.jpg","key_press":75,"trial_type":"categorize","trial_index":134,"time_elapsed":502113,"internal_node_id":"0.0-11.0-4.0"}},{"uniqueid":"A18I566TMVVSFQ:3CTOC39K38ROB6DPW5IXPUC7Z5EJ75","current_trial":135,"dateTime":1512442830437,"trialdata":{"rt":745,"correct":true,"stimulus":"static/img/stimuli/images18/image2.jpg","key_press":76,"trial_type":"categorize","trial_index":135,"time_elapsed":504361,"internal_node_id":"0.0-11.0-5.0"}},{"uniqueid":"A18I566TMVVSFQ:3CTOC39K38ROB6DPW5IXPUC7Z5EJ75","current_trial":136,"dateTime":1512442832622,"trialdata":{"rt":682,"correct":true,"stimulus":"static/img/stimuli/images18/image2.jpg","key_press":76,"trial_type":"categorize","trial_index":136,"time_elapsed":506546,"internal_node_id":"0.0-11.0-6.0"}},{"uniqueid":"A18I566TMVVSFQ:3CTOC39K38ROB6DPW5IXPUC7Z5EJ75","current_trial":137,"dateTime":1512442835309,"trialdata":{"rt":1187,"correct":false,"stimulus":"static/img/stimuli/images18/image3.jpg","key_press":76,"trial_type":"categorize","trial_index":137,"time_elapsed":509233,"internal_node_id":"0.0-11.0-7.0"}},{"uniqueid":"A18I566TMVVSFQ:3CTOC39K38ROB6DPW5IXPUC7Z5EJ75","current_trial":138,"dateTime":1512442837636,"trialdata":{"rt":822,"correct":false,"stimulus":"static/img/stimuli/images18/image6.jpg","key_press":74,"trial_type":"categorize","trial_index":138,"time_elapsed":511560,"internal_node_id":"0.0-11.0-8.0"}},{"uniqueid":"A18I566TMVVSFQ:3CTOC39K38ROB6DPW5IXPUC7Z5EJ75","current_trial":139,"dateTime":1512442839582,"trialdata":{"rt":443,"correct":false,"stimulus":"static/img/stimuli/images18/image5.jpg","key_press":74,"trial_type":"categorize","trial_index":139,"time_elapsed":513506,"internal_node_id":"0.0-11.0-9.0"}},{"uniqueid":"A18I566TMVVSFQ:3CTOC39K38ROB6DPW5IXPUC7Z5EJ75","current_trial":140,"dateTime":1512442841946,"trialdata":{"rt":861,"correct":true,"stimulus":"static/img/stimuli/images18/image4.jpg","key_press":74,"trial_type":"categorize","trial_index":140,"time_elapsed":515870,"internal_node_id":"0.0-11.0-10.0"}},{"uniqueid":"A18I566TMVVSFQ:3CTOC39K38ROB6DPW5IXPUC7Z5EJ75","current_trial":141,"dateTime":1512442844083,"trialdata":{"rt":634,"correct":true,"stimulus":"static/img/stimuli/images18/image1.jpg","key_press":74,"trial_type":"categorize","trial_index":141,"time_elapsed":518007,"internal_node_id":"0.0-11.0-11.0"}},{"uniqueid":"A18I566TMVVSFQ:3CTOC39K38ROB6DPW5IXPUC7Z5EJ75","current_trial":142,"dateTime":1512442846773,"trialdata":{"rt":1189,"correct":true,"stimulus":"static/img/stimuli/images18/image5.jpg","key_press":76,"trial_type":"categorize","trial_index":142,"time_elapsed":520697,"internal_node_id":"0.0-11.0-12.0"}},{"uniqueid":"A18I566TMVVSFQ:3CTOC39K38ROB6DPW5IXPUC7Z5EJ75","current_trial":143,"dateTime":1512442848978,"trialdata":{"rt":703,"correct":true,"stimulus":"static/img/stimuli/images18/image1.jpg","key_press":74,"trial_type":"categorize","trial_index":143,"time_elapsed":522902,"internal_node_id":"0.0-11.0-13.0"}},{"uniqueid":"A18I566TMVVSFQ:3CTOC39K38ROB6DPW5IXPUC7Z5EJ75","current_trial":144,"dateTime":1512442851247,"trialdata":{"rt":766,"correct":true,"stimulus":"static/img/stimuli/images18/image2.jpg","key_press":76,"trial_type":"categorize","trial_index":144,"time_elapsed":525171,"internal_node_id":"0.0-11.0-14.0"}},{"uniqueid":"A18I566TMVVSFQ:3CTOC39K38ROB6DPW5IXPUC7Z5EJ75","current_trial":145,"dateTime":1512442853302,"trialdata":{"rt":553,"correct":true,"stimulus":"static/img/stimuli/images18/image6.jpg","key_press":75,"trial_type":"categorize","trial_index":145,"time_elapsed":527226,"internal_node_id":"0.0-11.0-15.0"}},{"uniqueid":"A18I566TMVVSFQ:3CTOC39K38ROB6DPW5IXPUC7Z5EJ75","current_trial":146,"dateTime":1512442855772,"trialdata":{"rt":964,"correct":false,"stimulus":"static/img/stimuli/images18/image4.jpg","key_press":76,"trial_type":"categorize","trial_index":146,"time_elapsed":529696,"internal_node_id":"0.0-11.0-16.0"}},{"uniqueid":"A18I566TMVVSFQ:3CTOC39K38ROB6DPW5IXPUC7Z5EJ75","current_trial":147,"dateTime":1512442858168,"trialdata":{"rt":893,"correct":false,"stimulus":"static/img/stimuli/images18/image3.jpg","key_press":76,"trial_type":"categorize","trial_index":147,"time_elapsed":532092,"internal_node_id":"0.0-11.0-17.0"}},{"uniqueid":"A18I566TMVVSFQ:3CTOC39K38ROB6DPW5IXPUC7Z5EJ75","current_trial":148,"dateTime":1512442860280,"trialdata":{"rt":609,"correct":true,"stimulus":"static/img/stimuli/images18/image1.jpg","key_press":74,"trial_type":"categorize","trial_index":148,"time_elapsed":534204,"internal_node_id":"0.0-11.0-18.0"}},{"uniqueid":"A18I566TMVVSFQ:3CTOC39K38ROB6DPW5IXPUC7Z5EJ75","current_trial":149,"dateTime":1512442862882,"trialdata":{"rt":1092,"correct":false,"stimulus":"static/img/stimuli/images18/image4.jpg","key_press":76,"trial_type":"categorize","trial_index":149,"time_elapsed":536806,"internal_node_id":"0.0-11.0-19.0"}},{"uniqueid":"A18I566TMVVSFQ:3CTOC39K38ROB6DPW5IXPUC7Z5EJ75","current_trial":150,"dateTime":1512442865162,"trialdata":{"rt":777,"correct":true,"stimulus":"static/img/stimuli/images18/image6.jpg","key_press":75,"trial_type":"categorize","trial_index":150,"time_elapsed":539086,"internal_node_id":"0.0-11.0-20.0"}},{"uniqueid":"A18I566TMVVSFQ:3CTOC39K38ROB6DPW5IXPUC7Z5EJ75","current_trial":151,"dateTime":1512442867566,"trialdata":{"rt":903,"correct":true,"stimulus":"static/img/stimuli/images18/image3.jpg","key_press":75,"trial_type":"categorize","trial_index":151,"time_elapsed":541490,"internal_node_id":"0.0-11.0-21.0"}},{"uniqueid":"A18I566TMVVSFQ:3CTOC39K38ROB6DPW5IXPUC7Z5EJ75","current_trial":152,"dateTime":1512442869968,"trialdata":{"rt":900,"correct":true,"stimulus":"static/img/stimuli/images18/image5.jpg","key_press":76,"trial_type":"categorize","trial_index":152,"time_elapsed":543892,"internal_node_id":"0.0-11.0-22.0"}},{"uniqueid":"A18I566TMVVSFQ:3CTOC39K38ROB6DPW5IXPUC7Z5EJ75","current_trial":153,"dateTime":1512442872318,"trialdata":{"rt":835,"correct":true,"stimulus":"static/img/stimuli/images18/image2.jpg","key_press":76,"trial_type":"categorize","trial_index":153,"time_elapsed":546242,"internal_node_id":"0.0-11.0-23.0"}},{"uniqueid":"A18I566TMVVSFQ:3CTOC39K38ROB6DPW5IXPUC7Z5EJ75","current_trial":154,"dateTime":1512442874884,"trialdata":{"rt":1065,"correct":false,"stimulus":"static/img/stimuli/images18/image3.jpg","key_press":76,"trial_type":"categorize","trial_index":154,"time_elapsed":548808,"internal_node_id":"0.0-11.0-24.0"}},{"uniqueid":"A18I566TMVVSFQ:3CTOC39K38ROB6DPW5IXPUC7Z5EJ75","current_trial":155,"dateTime":1512442877221,"trialdata":{"rt":816,"correct":true,"stimulus":"static/img/stimuli/images18/image1.jpg","key_press":74,"trial_type":"categorize","trial_index":155,"time_elapsed":551145,"internal_node_id":"0.0-11.0-25.0"}},{"uniqueid":"A18I566TMVVSFQ:3CTOC39K38ROB6DPW5IXPUC7Z5EJ75","current_trial":156,"dateTime":1512442879907,"trialdata":{"rt":1183,"correct":true,"stimulus":"static/img/stimuli/images18/image5.jpg","key_press":76,"trial_type":"categorize","trial_index":156,"time_elapsed":553831,"internal_node_id":"0.0-11.0-26.0"}},{"uniqueid":"A18I566TMVVSFQ:3CTOC39K38ROB6DPW5IXPUC7Z5EJ75","current_trial":157,"dateTime":1512442882396,"trialdata":{"rt":985,"correct":false,"stimulus":"static/img/stimuli/images18/image4.jpg","key_press":75,"trial_type":"categorize","trial_index":157,"time_elapsed":556320,"internal_node_id":"0.0-11.0-27.0"}},{"uniqueid":"A18I566TMVVSFQ:3CTOC39K38ROB6DPW5IXPUC7Z5EJ75","current_trial":158,"dateTime":1512442884596,"trialdata":{"rt":698,"correct":true,"stimulus":"static/img/stimuli/images18/image2.jpg","key_press":76,"trial_type":"categorize","trial_index":158,"time_elapsed":558520,"internal_node_id":"0.0-11.0-28.0"}},{"uniqueid":"A18I566TMVVSFQ:3CTOC39K38ROB6DPW5IXPUC7Z5EJ75","current_trial":159,"dateTime":1512442887580,"trialdata":{"rt":1481,"correct":true,"stimulus":"static/img/stimuli/images18/image6.jpg","key_press":75,"trial_type":"categorize","trial_index":159,"time_elapsed":561504,"internal_node_id":"0.0-11.0-29.0"}},{"uniqueid":"A18I566TMVVSFQ:3CTOC39K38ROB6DPW5IXPUC7Z5EJ75","current_trial":160,"dateTime":1512442890140,"trialdata":{"rt":1058,"correct":true,"stimulus":"static/img/stimuli/images18/image6.jpg","key_press":75,"trial_type":"categorize","trial_index":160,"time_elapsed":564064,"internal_node_id":"0.0-11.0-30.0"}},{"uniqueid":"A18I566TMVVSFQ:3CTOC39K38ROB6DPW5IXPUC7Z5EJ75","current_trial":161,"dateTime":1512442892908,"trialdata":{"rt":1266,"correct":true,"stimulus":"static/img/stimuli/images18/image2.jpg","key_press":76,"trial_type":"categorize","trial_index":161,"time_elapsed":566832,"internal_node_id":"0.0-11.0-31.0"}},{"uniqueid":"A18I566TMVVSFQ:3CTOC39K38ROB6DPW5IXPUC7Z5EJ75","current_trial":162,"dateTime":1512442895257,"trialdata":{"rt":847,"correct":true,"stimulus":"static/img/stimuli/images18/image5.jpg","key_press":76,"trial_type":"categorize","trial_index":162,"time_elapsed":569181,"internal_node_id":"0.0-11.0-32.0"}},{"uniqueid":"A18I566TMVVSFQ:3CTOC39K38ROB6DPW5IXPUC7Z5EJ75","current_trial":163,"dateTime":1512442897376,"trialdata":{"rt":612,"correct":true,"stimulus":"static/img/stimuli/images18/image1.jpg","key_press":74,"trial_type":"categorize","trial_index":163,"time_elapsed":571300,"internal_node_id":"0.0-11.0-33.0"}},{"uniqueid":"A18I566TMVVSFQ:3CTOC39K38ROB6DPW5IXPUC7Z5EJ75","current_trial":164,"dateTime":1512442899840,"trialdata":{"rt":961,"correct":false,"stimulus":"static/img/stimuli/images18/image3.jpg","key_press":74,"trial_type":"categorize","trial_index":164,"time_elapsed":573764,"internal_node_id":"0.0-11.0-34.0"}},{"uniqueid":"A18I566TMVVSFQ:3CTOC39K38ROB6DPW5IXPUC7Z5EJ75","current_trial":165,"dateTime":1512442902051,"trialdata":{"rt":709,"correct":true,"stimulus":"static/img/stimuli/images18/image1.jpg","key_press":74,"trial_type":"categorize","trial_index":165,"time_elapsed":575975,"internal_node_id":"0.0-11.0-35.0"}},{"uniqueid":"A18I566TMVVSFQ:3CTOC39K38ROB6DPW5IXPUC7Z5EJ75","current_trial":166,"dateTime":1512442904591,"trialdata":{"rt":1037,"correct":false,"stimulus":"static/img/stimuli/images18/image4.jpg","key_press":76,"trial_type":"categorize","trial_index":166,"time_elapsed":578515,"internal_node_id":"0.0-11.0-36.0"}},{"uniqueid":"A18I566TMVVSFQ:3CTOC39K38ROB6DPW5IXPUC7Z5EJ75","current_trial":167,"dateTime":1512442906755,"trialdata":{"rt":661,"correct":true,"stimulus":"static/img/stimuli/images18/image5.jpg","key_press":76,"trial_type":"categorize","trial_index":167,"time_elapsed":580679,"internal_node_id":"0.0-11.0-37.0"}},{"uniqueid":"A18I566TMVVSFQ:3CTOC39K38ROB6DPW5IXPUC7Z5EJ75","current_trial":168,"dateTime":1512442909084,"trialdata":{"rt":811,"correct":false,"stimulus":"static/img/stimuli/images18/image4.jpg","key_press":75,"trial_type":"categorize","trial_index":168,"time_elapsed":583007,"internal_node_id":"0.0-11.0-38.0"}},{"uniqueid":"A18I566TMVVSFQ:3CTOC39K38ROB6DPW5IXPUC7Z5EJ75","current_trial":169,"dateTime":1512442910989,"trialdata":{"view_history":"[{\"page_index\":0,\"viewing_time\":894}]","rt":895,"trial_type":"instructions","trial_index":169,"time_elapsed":584913,"internal_node_id":"0.0-12.0"}},{"uniqueid":"A18I566TMVVSFQ:3CTOC39K38ROB6DPW5IXPUC7Z5EJ75","current_trial":170,"dateTime":1512442916279,"trialdata":{"view_history":"[{\"page_index\":0,\"viewing_time\":4288}]","rt":4288,"trial_type":"instructions","trial_index":170,"time_elapsed":590203,"internal_node_id":"0.0-13.0"}},{"uniqueid":"A18I566TMVVSFQ:3CTOC39K38ROB6DPW5IXPUC7Z5EJ75","current_trial":171,"dateTime":1512442918898,"trialdata":{"rt":1117,"correct":false,"stimulus":"static/img/stimuli/images18/image3.jpg","key_press":76,"trial_type":"categorize","trial_index":171,"time_elapsed":592822,"internal_node_id":"0.0-14.0-0.0"}},{"uniqueid":"A18I566TMVVSFQ:3CTOC39K38ROB6DPW5IXPUC7Z5EJ75","current_trial":172,"dateTime":1512442921189,"trialdata":{"rt":784,"correct":true,"stimulus":"static/img/stimuli/images18/image6.jpg","key_press":75,"trial_type":"categorize","trial_index":172,"time_elapsed":595113,"internal_node_id":"0.0-14.0-1.0"}},{"uniqueid":"A18I566TMVVSFQ:3CTOC39K38ROB6DPW5IXPUC7Z5EJ75","current_trial":173,"dateTime":1512442923144,"trialdata":{"rt":452,"correct":true,"stimulus":"static/img/stimuli/images18/image6.jpg","key_press":75,"trial_type":"categorize","trial_index":173,"time_elapsed":597068,"internal_node_id":"0.0-14.0-2.0"}},{"uniqueid":"A18I566TMVVSFQ:3CTOC39K38ROB6DPW5IXPUC7Z5EJ75","current_trial":174,"dateTime":1512442925293,"trialdata":{"rt":647,"correct":true,"stimulus":"static/img/stimuli/images18/image2.jpg","key_press":76,"trial_type":"categorize","trial_index":174,"time_elapsed":599217,"internal_node_id":"0.0-14.0-3.0"}},{"uniqueid":"A18I566TMVVSFQ:3CTOC39K38ROB6DPW5IXPUC7Z5EJ75","current_trial":175,"dateTime":1512442927551,"trialdata":{"rt":751,"correct":true,"stimulus":"static/img/stimuli/images18/image5.jpg","key_press":76,"trial_type":"categorize","trial_index":175,"time_elapsed":601475,"internal_node_id":"0.0-14.0-4.0"}},{"uniqueid":"A18I566TMVVSFQ:3CTOC39K38ROB6DPW5IXPUC7Z5EJ75","current_trial":176,"dateTime":1512442929851,"trialdata":{"rt":790,"correct":true,"stimulus":"static/img/stimuli/images18/image1.jpg","key_press":74,"trial_type":"categorize","trial_index":176,"time_elapsed":603775,"internal_node_id":"0.0-14.0-5.0"}},{"uniqueid":"A18I566TMVVSFQ:3CTOC39K38ROB6DPW5IXPUC7Z5EJ75","current_trial":177,"dateTime":1512442932853,"trialdata":{"rt":-1,"correct":false,"stimulus":"static/img/stimuli/images18/image4.jpg","key_press":-1,"trial_type":"categorize","trial_index":177,"time_elapsed":606777,"internal_node_id":"0.0-14.0-6.0"}},{"uniqueid":"A18I566TMVVSFQ:3CTOC39K38ROB6DPW5IXPUC7Z5EJ75","current_trial":178,"dateTime":1512442934903,"trialdata":{"rt":548,"correct":true,"stimulus":"static/img/stimuli/images18/image2.jpg","key_press":76,"trial_type":"categorize","trial_index":178,"time_elapsed":608827,"internal_node_id":"0.0-14.0-7.0"}},{"uniqueid":"A18I566TMVVSFQ:3CTOC39K38ROB6DPW5IXPUC7Z5EJ75","current_trial":179,"dateTime":1512442937202,"trialdata":{"rt":795,"correct":true,"stimulus":"static/img/stimuli/images18/image3.jpg","key_press":75,"trial_type":"categorize","trial_index":179,"time_elapsed":611126,"internal_node_id":"0.0-14.0-8.0"}},{"uniqueid":"A18I566TMVVSFQ:3CTOC39K38ROB6DPW5IXPUC7Z5EJ75","current_trial":180,"dateTime":1512442939437,"trialdata":{"rt":733,"correct":true,"stimulus":"static/img/stimuli/images18/image6.jpg","key_press":75,"trial_type":"categorize","trial_index":180,"time_elapsed":613361,"internal_node_id":"0.0-14.0-9.0"}},{"uniqueid":"A18I566TMVVSFQ:3CTOC39K38ROB6DPW5IXPUC7Z5EJ75","current_trial":181,"dateTime":1512442941721,"trialdata":{"rt":782,"correct":true,"stimulus":"static/img/stimuli/images18/image2.jpg","key_press":76,"trial_type":"categorize","trial_index":181,"time_elapsed":615645,"internal_node_id":"0.0-14.0-10.0"}},{"uniqueid":"A18I566TMVVSFQ:3CTOC39K38ROB6DPW5IXPUC7Z5EJ75","current_trial":182,"dateTime":1512442943950,"trialdata":{"rt":727,"correct":true,"stimulus":"static/img/stimuli/images18/image1.jpg","key_press":74,"trial_type":"categorize","trial_index":182,"time_elapsed":617874,"internal_node_id":"0.0-14.0-11.0"}},{"uniqueid":"A18I566TMVVSFQ:3CTOC39K38ROB6DPW5IXPUC7Z5EJ75","current_trial":183,"dateTime":1512442946365,"trialdata":{"rt":914,"correct":false,"stimulus":"static/img/stimuli/images18/image3.jpg","key_press":74,"trial_type":"categorize","trial_index":183,"time_elapsed":620289,"internal_node_id":"0.0-14.0-12.0"}},{"uniqueid":"A18I566TMVVSFQ:3CTOC39K38ROB6DPW5IXPUC7Z5EJ75","current_trial":184,"dateTime":1512442948681,"trialdata":{"rt":815,"correct":true,"stimulus":"static/img/stimuli/images18/image5.jpg","key_press":76,"trial_type":"categorize","trial_index":184,"time_elapsed":622605,"internal_node_id":"0.0-14.0-13.0"}},{"uniqueid":"A18I566TMVVSFQ:3CTOC39K38ROB6DPW5IXPUC7Z5EJ75","current_trial":185,"dateTime":1512442951207,"trialdata":{"rt":1022,"correct":false,"stimulus":"static/img/stimuli/images18/image4.jpg","key_press":75,"trial_type":"categorize","trial_index":185,"time_elapsed":625131,"internal_node_id":"0.0-14.0-14.0"}},{"uniqueid":"A18I566TMVVSFQ:3CTOC39K38ROB6DPW5IXPUC7Z5EJ75","current_trial":186,"dateTime":1512442953709,"trialdata":{"rt":1000,"correct":false,"stimulus":"static/img/stimuli/images18/image4.jpg","key_press":76,"trial_type":"categorize","trial_index":186,"time_elapsed":627633,"internal_node_id":"0.0-14.0-15.0"}},{"uniqueid":"A18I566TMVVSFQ:3CTOC39K38ROB6DPW5IXPUC7Z5EJ75","current_trial":187,"dateTime":1512442955934,"trialdata":{"rt":723,"correct":true,"stimulus":"static/img/stimuli/images18/image5.jpg","key_press":76,"trial_type":"categorize","trial_index":187,"time_elapsed":629858,"internal_node_id":"0.0-14.0-16.0"}},{"uniqueid":"A18I566TMVVSFQ:3CTOC39K38ROB6DPW5IXPUC7Z5EJ75","current_trial":188,"dateTime":1512442958942,"trialdata":{"rt":-1,"correct":false,"stimulus":"static/img/stimuli/images18/image4.jpg","key_press":-1,"trial_type":"categorize","trial_index":188,"time_elapsed":632866,"internal_node_id":"0.0-14.0-17.0"}},{"uniqueid":"A18I566TMVVSFQ:3CTOC39K38ROB6DPW5IXPUC7Z5EJ75","current_trial":189,"dateTime":1512442961193,"trialdata":{"rt":743,"correct":true,"stimulus":"static/img/stimuli/images18/image3.jpg","key_press":75,"trial_type":"categorize","trial_index":189,"time_elapsed":635117,"internal_node_id":"0.0-14.0-18.0"}},{"uniqueid":"A18I566TMVVSFQ:3CTOC39K38ROB6DPW5IXPUC7Z5EJ75","current_trial":190,"dateTime":1512442963282,"trialdata":{"rt":585,"correct":true,"stimulus":"static/img/stimuli/images18/image6.jpg","key_press":75,"trial_type":"categorize","trial_index":190,"time_elapsed":637206,"internal_node_id":"0.0-14.0-19.0"}},{"uniqueid":"A18I566TMVVSFQ:3CTOC39K38ROB6DPW5IXPUC7Z5EJ75","current_trial":191,"dateTime":1512442965462,"trialdata":{"rt":677,"correct":true,"stimulus":"static/img/stimuli/images18/image2.jpg","key_press":76,"trial_type":"categorize","trial_index":191,"time_elapsed":639386,"internal_node_id":"0.0-14.0-20.0"}},{"uniqueid":"A18I566TMVVSFQ:3CTOC39K38ROB6DPW5IXPUC7Z5EJ75","current_trial":192,"dateTime":1512442967737,"trialdata":{"rt":773,"correct":true,"stimulus":"static/img/stimuli/images18/image5.jpg","key_press":76,"trial_type":"categorize","trial_index":192,"time_elapsed":641661,"internal_node_id":"0.0-14.0-21.0"}},{"uniqueid":"A18I566TMVVSFQ:3CTOC39K38ROB6DPW5IXPUC7Z5EJ75","current_trial":193,"dateTime":1512442970214,"trialdata":{"rt":973,"correct":true,"stimulus":"static/img/stimuli/images18/image1.jpg","key_press":74,"trial_type":"categorize","trial_index":193,"time_elapsed":644138,"internal_node_id":"0.0-14.0-22.0"}},{"uniqueid":"A18I566TMVVSFQ:3CTOC39K38ROB6DPW5IXPUC7Z5EJ75","current_trial":194,"dateTime":1512442972317,"trialdata":{"rt":601,"correct":true,"stimulus":"static/img/stimuli/images18/image1.jpg","key_press":74,"trial_type":"categorize","trial_index":194,"time_elapsed":646241,"internal_node_id":"0.0-14.0-23.0"}},{"uniqueid":"A18I566TMVVSFQ:3CTOC39K38ROB6DPW5IXPUC7Z5EJ75","current_trial":195,"dateTime":1512442974450,"trialdata":{"rt":631,"correct":true,"stimulus":"static/img/stimuli/images18/image2.jpg","key_press":76,"trial_type":"categorize","trial_index":195,"time_elapsed":648374,"internal_node_id":"0.0-14.0-24.0"}},{"uniqueid":"A18I566TMVVSFQ:3CTOC39K38ROB6DPW5IXPUC7Z5EJ75","current_trial":196,"dateTime":1512442977093,"trialdata":{"rt":1141,"correct":false,"stimulus":"static/img/stimuli/images18/image3.jpg","key_press":76,"trial_type":"categorize","trial_index":196,"time_elapsed":651017,"internal_node_id":"0.0-14.0-25.0"}},{"uniqueid":"A18I566TMVVSFQ:3CTOC39K38ROB6DPW5IXPUC7Z5EJ75","current_trial":197,"dateTime":1512442979284,"trialdata":{"rt":683,"correct":true,"stimulus":"static/img/stimuli/images18/image2.jpg","key_press":76,"trial_type":"categorize","trial_index":197,"time_elapsed":653208,"internal_node_id":"0.0-14.0-26.0"}},{"uniqueid":"A18I566TMVVSFQ:3CTOC39K38ROB6DPW5IXPUC7Z5EJ75","current_trial":198,"dateTime":1512442982018,"trialdata":{"rt":1231,"correct":true,"stimulus":"static/img/stimuli/images18/image6.jpg","key_press":75,"trial_type":"categorize","trial_index":198,"time_elapsed":655942,"internal_node_id":"0.0-14.0-27.0"}},{"uniqueid":"A18I566TMVVSFQ:3CTOC39K38ROB6DPW5IXPUC7Z5EJ75","current_trial":199,"dateTime":1512442984351,"trialdata":{"rt":831,"correct":false,"stimulus":"static/img/stimuli/images18/image4.jpg","key_press":76,"trial_type":"categorize","trial_index":199,"time_elapsed":658275,"internal_node_id":"0.0-14.0-28.0"}},{"uniqueid":"A18I566TMVVSFQ:3CTOC39K38ROB6DPW5IXPUC7Z5EJ75","current_trial":200,"dateTime":1512442987064,"trialdata":{"rt":1209,"correct":false,"stimulus":"static/img/stimuli/images18/image3.jpg","key_press":76,"trial_type":"categorize","trial_index":200,"time_elapsed":660988,"internal_node_id":"0.0-14.0-29.0"}},{"uniqueid":"A18I566TMVVSFQ:3CTOC39K38ROB6DPW5IXPUC7Z5EJ75","current_trial":201,"dateTime":1512442989512,"trialdata":{"rt":943,"correct":true,"stimulus":"static/img/stimuli/images18/image6.jpg","key_press":75,"trial_type":"categorize","trial_index":201,"time_elapsed":663436,"internal_node_id":"0.0-14.0-30.0"}},{"uniqueid":"A18I566TMVVSFQ:3CTOC39K38ROB6DPW5IXPUC7Z5EJ75","current_trial":202,"dateTime":1512442991695,"trialdata":{"rt":681,"correct":true,"stimulus":"static/img/stimuli/images18/image5.jpg","key_press":76,"trial_type":"categorize","trial_index":202,"time_elapsed":665619,"internal_node_id":"0.0-14.0-31.0"}},{"uniqueid":"A18I566TMVVSFQ:3CTOC39K38ROB6DPW5IXPUC7Z5EJ75","current_trial":203,"dateTime":1512442993864,"trialdata":{"rt":666,"correct":true,"stimulus":"static/img/stimuli/images18/image1.jpg","key_press":74,"trial_type":"categorize","trial_index":203,"time_elapsed":667788,"internal_node_id":"0.0-14.0-32.0"}},{"uniqueid":"A18I566TMVVSFQ:3CTOC39K38ROB6DPW5IXPUC7Z5EJ75","current_trial":204,"dateTime":1512442996002,"trialdata":{"rt":632,"correct":true,"stimulus":"static/img/stimuli/images18/image5.jpg","key_press":76,"trial_type":"categorize","trial_index":204,"time_elapsed":669926,"internal_node_id":"0.0-14.0-33.0"}},{"uniqueid":"A18I566TMVVSFQ:3CTOC39K38ROB6DPW5IXPUC7Z5EJ75","current_trial":205,"dateTime":1512442998480,"trialdata":{"rt":972,"correct":false,"stimulus":"static/img/stimuli/images18/image4.jpg","key_press":76,"trial_type":"categorize","trial_index":205,"time_elapsed":672404,"internal_node_id":"0.0-14.0-34.0"}},{"uniqueid":"A18I566TMVVSFQ:3CTOC39K38ROB6DPW5IXPUC7Z5EJ75","current_trial":206,"dateTime":1512443001291,"trialdata":{"rt":1309,"correct":false,"stimulus":"static/img/stimuli/images18/image6.jpg","key_press":76,"trial_type":"categorize","trial_index":206,"time_elapsed":675215,"internal_node_id":"0.0-14.0-35.0"}},{"uniqueid":"A18I566TMVVSFQ:3CTOC39K38ROB6DPW5IXPUC7Z5EJ75","current_trial":207,"dateTime":1512443004004,"trialdata":{"rt":1211,"correct":true,"stimulus":"static/img/stimuli/images18/image3.jpg","key_press":75,"trial_type":"categorize","trial_index":207,"time_elapsed":677928,"internal_node_id":"0.0-14.0-36.0"}},{"uniqueid":"A18I566TMVVSFQ:3CTOC39K38ROB6DPW5IXPUC7Z5EJ75","current_trial":208,"dateTime":1512443006099,"trialdata":{"rt":593,"correct":true,"stimulus":"static/img/stimuli/images18/image2.jpg","key_press":76,"trial_type":"categorize","trial_index":208,"time_elapsed":680023,"internal_node_id":"0.0-14.0-37.0"}},{"uniqueid":"A18I566TMVVSFQ:3CTOC39K38ROB6DPW5IXPUC7Z5EJ75","current_trial":209,"dateTime":1512443008663,"trialdata":{"rt":1053,"correct":true,"stimulus":"static/img/stimuli/images18/image2.jpg","key_press":76,"trial_type":"categorize","trial_index":209,"time_elapsed":682587,"internal_node_id":"0.0-14.0-38.0"}},{"uniqueid":"A18I566TMVVSFQ:3CTOC39K38ROB6DPW5IXPUC7Z5EJ75","current_trial":210,"dateTime":1512443011198,"trialdata":{"view_history":"[{\"page_index\":0,\"viewing_time\":1535}]","rt":1535,"trial_type":"instructions","trial_index":210,"time_elapsed":685122,"internal_node_id":"0.0-15.0"}},{"uniqueid":"A18I566TMVVSFQ:3CTOC39K38ROB6DPW5IXPUC7Z5EJ75","current_trial":211,"dateTime":1512443016307,"trialdata":{"view_history":"[{\"page_index\":0,\"viewing_time\":4096}]","rt":4097,"trial_type":"instructions","trial_index":211,"time_elapsed":690231,"internal_node_id":"0.0-16.0"}},{"uniqueid":"A18I566TMVVSFQ:3CTOC39K38ROB6DPW5IXPUC7Z5EJ75","current_trial":212,"dateTime":1512443018668,"trialdata":{"rt":859,"correct":true,"stimulus":"static/img/stimuli/images2/image4.jpg","key_press":74,"trial_type":"categorize","trial_index":212,"time_elapsed":692592,"internal_node_id":"0.0-17.0-0.0"}},{"uniqueid":"A18I566TMVVSFQ:3CTOC39K38ROB6DPW5IXPUC7Z5EJ75","current_trial":213,"dateTime":1512443021071,"trialdata":{"rt":902,"correct":false,"stimulus":"static/img/stimuli/images2/image6.jpg","key_press":74,"trial_type":"categorize","trial_index":213,"time_elapsed":694995,"internal_node_id":"0.0-17.0-1.0"}},{"uniqueid":"A18I566TMVVSFQ:3CTOC39K38ROB6DPW5IXPUC7Z5EJ75","current_trial":214,"dateTime":1512443023544,"trialdata":{"rt":962,"correct":false,"stimulus":"static/img/stimuli/images2/image1.jpg","key_press":74,"trial_type":"categorize","trial_index":214,"time_elapsed":697468,"internal_node_id":"0.0-17.0-2.0"}},{"uniqueid":"A18I566TMVVSFQ:3CTOC39K38ROB6DPW5IXPUC7Z5EJ75","current_trial":215,"dateTime":1512443025584,"trialdata":{"rt":519,"correct":false,"stimulus":"static/img/stimuli/images2/image1.jpg","key_press":74,"trial_type":"categorize","trial_index":215,"time_elapsed":699508,"internal_node_id":"0.0-17.0-3.0"}},{"uniqueid":"A18I566TMVVSFQ:3CTOC39K38ROB6DPW5IXPUC7Z5EJ75","current_trial":216,"dateTime":1512443027845,"trialdata":{"rt":759,"correct":false,"stimulus":"static/img/stimuli/images2/image6.jpg","key_press":74,"trial_type":"categorize","trial_index":216,"time_elapsed":701769,"internal_node_id":"0.0-17.0-4.0"}},{"uniqueid":"A18I566TMVVSFQ:3CTOC39K38ROB6DPW5IXPUC7Z5EJ75","current_trial":217,"dateTime":1512443029785,"trialdata":{"rt":439,"correct":true,"stimulus":"static/img/stimuli/images2/image4.jpg","key_press":74,"trial_type":"categorize","trial_index":217,"time_elapsed":703709,"internal_node_id":"0.0-17.0-5.0"}},{"uniqueid":"A18I566TMVVSFQ:3CTOC39K38ROB6DPW5IXPUC7Z5EJ75","current_trial":218,"dateTime":1512443031691,"trialdata":{"rt":403,"correct":false,"stimulus":"static/img/stimuli/images2/image6.jpg","key_press":74,"trial_type":"categorize","trial_index":218,"time_elapsed":705615,"internal_node_id":"0.0-17.0-6.0"}},{"uniqueid":"A18I566TMVVSFQ:3CTOC39K38ROB6DPW5IXPUC7Z5EJ75","current_trial":219,"dateTime":1512443033564,"trialdata":{"rt":370,"correct":false,"stimulus":"static/img/stimuli/images2/image1.jpg","key_press":74,"trial_type":"categorize","trial_index":219,"time_elapsed":707487,"internal_node_id":"0.0-17.0-7.0"}},{"uniqueid":"A18I566TMVVSFQ:3CTOC39K38ROB6DPW5IXPUC7Z5EJ75","current_trial":220,"dateTime":1512443035495,"trialdata":{"rt":429,"correct":true,"stimulus":"static/img/stimuli/images2/image4.jpg","key_press":74,"trial_type":"categorize","trial_index":220,"time_elapsed":709419,"internal_node_id":"0.0-17.0-8.0"}},{"uniqueid":"A18I566TMVVSFQ:3CTOC39K38ROB6DPW5IXPUC7Z5EJ75","current_trial":221,"dateTime":1512443037875,"trialdata":{"rt":878,"correct":true,"stimulus":"static/img/stimuli/images2/image4.jpg","key_press":74,"trial_type":"categorize","trial_index":221,"time_elapsed":711799,"internal_node_id":"0.0-17.0-9.0"}},{"uniqueid":"A18I566TMVVSFQ:3CTOC39K38ROB6DPW5IXPUC7Z5EJ75","current_trial":222,"dateTime":1512443039963,"trialdata":{"rt":587,"correct":false,"stimulus":"static/img/stimuli/images2/image6.jpg","key_press":75,"trial_type":"categorize","trial_index":222,"time_elapsed":713887,"internal_node_id":"0.0-17.0-10.0"}},{"uniqueid":"A18I566TMVVSFQ:3CTOC39K38ROB6DPW5IXPUC7Z5EJ75","current_trial":223,"dateTime":1512443042025,"trialdata":{"rt":560,"correct":false,"stimulus":"static/img/stimuli/images2/image1.jpg","key_press":74,"trial_type":"categorize","trial_index":223,"time_elapsed":715949,"internal_node_id":"0.0-17.0-11.0"}},{"uniqueid":"A18I566TMVVSFQ:3CTOC39K38ROB6DPW5IXPUC7Z5EJ75","current_trial":224,"dateTime":1512443044036,"trialdata":{"rt":508,"correct":true,"stimulus":"static/img/stimuli/images2/image4.jpg","key_press":74,"trial_type":"categorize","trial_index":224,"time_elapsed":717960,"internal_node_id":"0.0-17.0-12.0"}},{"uniqueid":"A18I566TMVVSFQ:3CTOC39K38ROB6DPW5IXPUC7Z5EJ75","current_trial":225,"dateTime":1512443046314,"trialdata":{"rt":773,"correct":false,"stimulus":"static/img/stimuli/images2/image1.jpg","key_press":74,"trial_type":"categorize","trial_index":225,"time_elapsed":720238,"internal_node_id":"0.0-17.0-13.0"}},{"uniqueid":"A18I566TMVVSFQ:3CTOC39K38ROB6DPW5IXPUC7Z5EJ75","current_trial":226,"dateTime":1512443048766,"trialdata":{"rt":945,"correct":false,"stimulus":"static/img/stimuli/images2/image6.jpg","key_press":75,"trial_type":"categorize","trial_index":226,"time_elapsed":722690,"internal_node_id":"0.0-17.0-14.0"}},{"uniqueid":"A18I566TMVVSFQ:3CTOC39K38ROB6DPW5IXPUC7Z5EJ75","current_trial":227,"dateTime":1512443050904,"trialdata":{"rt":631,"correct":false,"stimulus":"static/img/stimuli/images2/image6.jpg","key_press":75,"trial_type":"categorize","trial_index":227,"time_elapsed":724828,"internal_node_id":"0.0-17.0-15.0"}},{"uniqueid":"A18I566TMVVSFQ:3CTOC39K38ROB6DPW5IXPUC7Z5EJ75","current_trial":228,"dateTime":1512443052971,"trialdata":{"rt":565,"correct":true,"stimulus":"static/img/stimuli/images2/image4.jpg","key_press":74,"trial_type":"categorize","trial_index":228,"time_elapsed":726895,"internal_node_id":"0.0-17.0-16.0"}},{"uniqueid":"A18I566TMVVSFQ:3CTOC39K38ROB6DPW5IXPUC7Z5EJ75","current_trial":229,"dateTime":1512443055094,"trialdata":{"rt":620,"correct":false,"stimulus":"static/img/stimuli/images2/image6.jpg","key_press":75,"trial_type":"categorize","trial_index":229,"time_elapsed":729018,"internal_node_id":"0.0-17.0-17.0"}},{"uniqueid":"A18I566TMVVSFQ:3CTOC39K38ROB6DPW5IXPUC7Z5EJ75","current_trial":230,"dateTime":1512443057184,"trialdata":{"rt":588,"correct":false,"stimulus":"static/img/stimuli/images2/image1.jpg","key_press":74,"trial_type":"categorize","trial_index":230,"time_elapsed":731108,"internal_node_id":"0.0-17.0-18.0"}},{"uniqueid":"A18I566TMVVSFQ:3CTOC39K38ROB6DPW5IXPUC7Z5EJ75","current_trial":231,"dateTime":1512443059280,"trialdata":{"rt":593,"correct":true,"stimulus":"static/img/stimuli/images2/image4.jpg","key_press":74,"trial_type":"categorize","trial_index":231,"time_elapsed":733204,"internal_node_id":"0.0-17.0-19.0"}},{"uniqueid":"A18I566TMVVSFQ:3CTOC39K38ROB6DPW5IXPUC7Z5EJ75","current_trial":232,"dateTime":1512443061441,"trialdata":{"rt":645,"correct":true,"stimulus":"static/img/stimuli/images2/image4.jpg","key_press":74,"trial_type":"categorize","trial_index":232,"time_elapsed":735365,"internal_node_id":"0.0-17.0-20.0"}},{"uniqueid":"A18I566TMVVSFQ:3CTOC39K38ROB6DPW5IXPUC7Z5EJ75","current_trial":233,"dateTime":1512443063605,"trialdata":{"rt":662,"correct":false,"stimulus":"static/img/stimuli/images2/image1.jpg","key_press":74,"trial_type":"categorize","trial_index":233,"time_elapsed":737529,"internal_node_id":"0.0-17.0-21.0"}},{"uniqueid":"A18I566TMVVSFQ:3CTOC39K38ROB6DPW5IXPUC7Z5EJ75","current_trial":234,"dateTime":1512443066051,"trialdata":{"rt":944,"correct":false,"stimulus":"static/img/stimuli/images2/image6.jpg","key_press":74,"trial_type":"categorize","trial_index":234,"time_elapsed":739975,"internal_node_id":"0.0-17.0-22.0"}},{"uniqueid":"A18I566TMVVSFQ:3CTOC39K38ROB6DPW5IXPUC7Z5EJ75","current_trial":235,"dateTime":1512443068475,"trialdata":{"rt":920,"correct":false,"stimulus":"static/img/stimuli/images2/image1.jpg","key_press":74,"trial_type":"categorize","trial_index":235,"time_elapsed":742399,"internal_node_id":"0.0-17.0-23.0"}},{"uniqueid":"A18I566TMVVSFQ:3CTOC39K38ROB6DPW5IXPUC7Z5EJ75","current_trial":236,"dateTime":1512443070642,"trialdata":{"rt":663,"correct":false,"stimulus":"static/img/stimuli/images2/image1.jpg","key_press":74,"trial_type":"categorize","trial_index":236,"time_elapsed":744566,"internal_node_id":"0.0-17.0-24.0"}},{"uniqueid":"A18I566TMVVSFQ:3CTOC39K38ROB6DPW5IXPUC7Z5EJ75","current_trial":237,"dateTime":1512443072681,"trialdata":{"rt":537,"correct":true,"stimulus":"static/img/stimuli/images2/image4.jpg","key_press":74,"trial_type":"categorize","trial_index":237,"time_elapsed":746605,"internal_node_id":"0.0-17.0-25.0"}},{"uniqueid":"A18I566TMVVSFQ:3CTOC39K38ROB6DPW5IXPUC7Z5EJ75","current_trial":238,"dateTime":1512443075389,"trialdata":{"rt":1207,"correct":false,"stimulus":"static/img/stimuli/images2/image6.jpg","key_press":75,"trial_type":"categorize","trial_index":238,"time_elapsed":749313,"internal_node_id":"0.0-17.0-26.0"}},{"uniqueid":"A18I566TMVVSFQ:3CTOC39K38ROB6DPW5IXPUC7Z5EJ75","current_trial":239,"dateTime":1512443077545,"trialdata":{"rt":655,"correct":false,"stimulus":"static/img/stimuli/images2/image1.jpg","key_press":74,"trial_type":"categorize","trial_index":239,"time_elapsed":751469,"internal_node_id":"0.0-17.0-27.0"}},{"uniqueid":"A18I566TMVVSFQ:3CTOC39K38ROB6DPW5IXPUC7Z5EJ75","current_trial":240,"dateTime":1512443079974,"trialdata":{"rt":925,"correct":false,"stimulus":"static/img/stimuli/images2/image6.jpg","key_press":75,"trial_type":"categorize","trial_index":240,"time_elapsed":753898,"internal_node_id":"0.0-17.0-28.0"}},{"uniqueid":"A18I566TMVVSFQ:3CTOC39K38ROB6DPW5IXPUC7Z5EJ75","current_trial":241,"dateTime":1512443082113,"trialdata":{"rt":637,"correct":true,"stimulus":"static/img/stimuli/images2/image4.jpg","key_press":74,"trial_type":"categorize","trial_index":241,"time_elapsed":756037,"internal_node_id":"0.0-17.0-29.0"}},{"uniqueid":"A18I566TMVVSFQ:3CTOC39K38ROB6DPW5IXPUC7Z5EJ75","current_trial":242,"dateTime":1512443084238,"trialdata":{"rt":623,"correct":true,"stimulus":"static/img/stimuli/images2/image4.jpg","key_press":74,"trial_type":"categorize","trial_index":242,"time_elapsed":758162,"internal_node_id":"0.0-17.0-30.0"}},{"uniqueid":"A18I566TMVVSFQ:3CTOC39K38ROB6DPW5IXPUC7Z5EJ75","current_trial":243,"dateTime":1512443086443,"trialdata":{"rt":703,"correct":false,"stimulus":"static/img/stimuli/images2/image1.jpg","key_press":74,"trial_type":"categorize","trial_index":243,"time_elapsed":760367,"internal_node_id":"0.0-17.0-31.0"}},{"uniqueid":"A18I566TMVVSFQ:3CTOC39K38ROB6DPW5IXPUC7Z5EJ75","current_trial":244,"dateTime":1512443088593,"trialdata":{"rt":649,"correct":true,"stimulus":"static/img/stimuli/images2/image4.jpg","key_press":74,"trial_type":"categorize","trial_index":244,"time_elapsed":762517,"internal_node_id":"0.0-17.0-32.0"}},{"uniqueid":"A18I566TMVVSFQ:3CTOC39K38ROB6DPW5IXPUC7Z5EJ75","current_trial":245,"dateTime":1512443090663,"trialdata":{"rt":566,"correct":false,"stimulus":"static/img/stimuli/images2/image6.jpg","key_press":75,"trial_type":"categorize","trial_index":245,"time_elapsed":764587,"internal_node_id":"0.0-17.0-33.0"}},{"uniqueid":"A18I566TMVVSFQ:3CTOC39K38ROB6DPW5IXPUC7Z5EJ75","current_trial":246,"dateTime":1512443092886,"trialdata":{"rt":719,"correct":false,"stimulus":"static/img/stimuli/images2/image6.jpg","key_press":75,"trial_type":"categorize","trial_index":246,"time_elapsed":766810,"internal_node_id":"0.0-17.0-34.0"}},{"uniqueid":"A18I566TMVVSFQ:3CTOC39K38ROB6DPW5IXPUC7Z5EJ75","current_trial":247,"dateTime":1512443095382,"trialdata":{"rt":993,"correct":false,"stimulus":"static/img/stimuli/images2/image1.jpg","key_press":74,"trial_type":"categorize","trial_index":247,"time_elapsed":769306,"internal_node_id":"0.0-17.0-35.0"}},{"uniqueid":"A18I566TMVVSFQ:3CTOC39K38ROB6DPW5IXPUC7Z5EJ75","current_trial":248,"dateTime":1512443097557,"trialdata":{"rt":673,"correct":false,"stimulus":"static/img/stimuli/images2/image6.jpg","key_press":75,"trial_type":"categorize","trial_index":248,"time_elapsed":771481,"internal_node_id":"0.0-17.0-36.0"}},{"uniqueid":"A18I566TMVVSFQ:3CTOC39K38ROB6DPW5IXPUC7Z5EJ75","current_trial":249,"dateTime":1512443099729,"trialdata":{"rt":670,"correct":true,"stimulus":"static/img/stimuli/images2/image4.jpg","key_press":74,"trial_type":"categorize","trial_index":249,"time_elapsed":773653,"internal_node_id":"0.0-17.0-37.0"}},{"uniqueid":"A18I566TMVVSFQ:3CTOC39K38ROB6DPW5IXPUC7Z5EJ75","current_trial":250,"dateTime":1512443101909,"trialdata":{"rt":678,"correct":false,"stimulus":"static/img/stimuli/images2/image1.jpg","key_press":74,"trial_type":"categorize","trial_index":250,"time_elapsed":775833,"internal_node_id":"0.0-17.0-38.0"}},{"uniqueid":"A18I566TMVVSFQ:3CTOC39K38ROB6DPW5IXPUC7Z5EJ75","current_trial":251,"dateTime":1512443104913,"trialdata":{"rt":-1,"correct":false,"stimulus":"static/img/stimuli/images14/image1.jpg","key_press":-1,"trial_type":"categorize","trial_index":251,"time_elapsed":778837,"internal_node_id":"0.0-17.0-39.0"}},{"uniqueid":"A18I566TMVVSFQ:3CTOC39K38ROB6DPW5IXPUC7Z5EJ75","current_trial":252,"dateTime":1512443107553,"trialdata":{"rt":1134,"correct":false,"stimulus":"static/img/stimuli/images14/image6.jpg","key_press":76,"trial_type":"categorize","trial_index":252,"time_elapsed":781477,"internal_node_id":"0.0-17.0-40.0"}},{"uniqueid":"A18I566TMVVSFQ:3CTOC39K38ROB6DPW5IXPUC7Z5EJ75","current_trial":253,"dateTime":1512443110177,"trialdata":{"rt":1123,"correct":false,"stimulus":"static/img/stimuli/images14/image5.jpg","key_press":76,"trial_type":"categorize","trial_index":253,"time_elapsed":784101,"internal_node_id":"0.0-17.0-41.0"}},{"uniqueid":"A18I566TMVVSFQ:3CTOC39K38ROB6DPW5IXPUC7Z5EJ75","current_trial":254,"dateTime":1512443112593,"trialdata":{"rt":913,"correct":false,"stimulus":"static/img/stimuli/images14/image5.jpg","key_press":76,"trial_type":"categorize","trial_index":254,"time_elapsed":786517,"internal_node_id":"0.0-17.0-42.0"}},{"uniqueid":"A18I566TMVVSFQ:3CTOC39K38ROB6DPW5IXPUC7Z5EJ75","current_trial":255,"dateTime":1512443114786,"trialdata":{"rt":690,"correct":false,"stimulus":"static/img/stimuli/images14/image6.jpg","key_press":76,"trial_type":"categorize","trial_index":255,"time_elapsed":788710,"internal_node_id":"0.0-17.0-43.0"}},{"uniqueid":"A18I566TMVVSFQ:3CTOC39K38ROB6DPW5IXPUC7Z5EJ75","current_trial":256,"dateTime":1512443116996,"trialdata":{"rt":708,"correct":true,"stimulus":"static/img/stimuli/images14/image1.jpg","key_press":75,"trial_type":"categorize","trial_index":256,"time_elapsed":790920,"internal_node_id":"0.0-17.0-44.0"}},{"uniqueid":"A18I566TMVVSFQ:3CTOC39K38ROB6DPW5IXPUC7Z5EJ75","current_trial":257,"dateTime":1512443119203,"trialdata":{"rt":703,"correct":true,"stimulus":"static/img/stimuli/images14/image6.jpg","key_press":75,"trial_type":"categorize","trial_index":257,"time_elapsed":793127,"internal_node_id":"0.0-17.0-45.0"}},{"uniqueid":"A18I566TMVVSFQ:3CTOC39K38ROB6DPW5IXPUC7Z5EJ75","current_trial":258,"dateTime":1512443121342,"trialdata":{"rt":635,"correct":false,"stimulus":"static/img/stimuli/images14/image5.jpg","key_press":75,"trial_type":"categorize","trial_index":258,"time_elapsed":795266,"internal_node_id":"0.0-17.0-46.0"}},{"uniqueid":"A18I566TMVVSFQ:3CTOC39K38ROB6DPW5IXPUC7Z5EJ75","current_trial":259,"dateTime":1512443123307,"trialdata":{"rt":462,"correct":true,"stimulus":"static/img/stimuli/images14/image1.jpg","key_press":75,"trial_type":"categorize","trial_index":259,"time_elapsed":797231,"internal_node_id":"0.0-17.0-47.0"}},{"uniqueid":"A18I566TMVVSFQ:3CTOC39K38ROB6DPW5IXPUC7Z5EJ75","current_trial":260,"dateTime":1512443125220,"trialdata":{"rt":408,"correct":true,"stimulus":"static/img/stimuli/images14/image1.jpg","key_press":75,"trial_type":"categorize","trial_index":260,"time_elapsed":799144,"internal_node_id":"0.0-17.0-48.0"}},{"uniqueid":"A18I566TMVVSFQ:3CTOC39K38ROB6DPW5IXPUC7Z5EJ75","current_trial":261,"dateTime":1512443127072,"trialdata":{"rt":349,"correct":true,"stimulus":"static/img/stimuli/images14/image6.jpg","key_press":75,"trial_type":"categorize","trial_index":261,"time_elapsed":800996,"internal_node_id":"0.0-17.0-49.0"}},{"uniqueid":"A18I566TMVVSFQ:3CTOC39K38ROB6DPW5IXPUC7Z5EJ75","current_trial":262,"dateTime":1512443128876,"trialdata":{"rt":300,"correct":false,"stimulus":"static/img/stimuli/images14/image5.jpg","key_press":75,"trial_type":"categorize","trial_index":262,"time_elapsed":802800,"internal_node_id":"0.0-17.0-50.0"}},{"uniqueid":"A18I566TMVVSFQ:3CTOC39K38ROB6DPW5IXPUC7Z5EJ75","current_trial":263,"dateTime":1512443130547,"trialdata":{"rt":163,"correct":true,"stimulus":"static/img/stimuli/images14/image1.jpg","key_press":75,"trial_type":"categorize","trial_index":263,"time_elapsed":804471,"internal_node_id":"0.0-17.0-51.0"}},{"uniqueid":"A18I566TMVVSFQ:3CTOC39K38ROB6DPW5IXPUC7Z5EJ75","current_trial":264,"dateTime":1512443132123,"trialdata":{"rt":74,"correct":false,"stimulus":"static/img/stimuli/images14/image5.jpg","key_press":75,"trial_type":"categorize","trial_index":264,"time_elapsed":806047,"internal_node_id":"0.0-17.0-52.0"}},{"uniqueid":"A18I566TMVVSFQ:3CTOC39K38ROB6DPW5IXPUC7Z5EJ75","current_trial":265,"dateTime":1512443133863,"trialdata":{"rt":238,"correct":true,"stimulus":"static/img/stimuli/images14/image6.jpg","key_press":75,"trial_type":"categorize","trial_index":265,"time_elapsed":807787,"internal_node_id":"0.0-17.0-53.0"}},{"uniqueid":"A18I566TMVVSFQ:3CTOC39K38ROB6DPW5IXPUC7Z5EJ75","current_trial":266,"dateTime":1512443135683,"trialdata":{"rt":317,"correct":true,"stimulus":"static/img/stimuli/images14/image6.jpg","key_press":75,"trial_type":"categorize","trial_index":266,"time_elapsed":809607,"internal_node_id":"0.0-17.0-54.0"}},{"uniqueid":"A18I566TMVVSFQ:3CTOC39K38ROB6DPW5IXPUC7Z5EJ75","current_trial":267,"dateTime":1512443137688,"trialdata":{"rt":490,"correct":true,"stimulus":"static/img/stimuli/images14/image1.jpg","key_press":75,"trial_type":"categorize","trial_index":267,"time_elapsed":811612,"internal_node_id":"0.0-17.0-55.0"}},{"uniqueid":"A18I566TMVVSFQ:3CTOC39K38ROB6DPW5IXPUC7Z5EJ75","current_trial":268,"dateTime":1512443139537,"trialdata":{"rt":340,"correct":true,"stimulus":"static/img/stimuli/images14/image6.jpg","key_press":75,"trial_type":"categorize","trial_index":268,"time_elapsed":813461,"internal_node_id":"0.0-17.0-56.0"}},{"uniqueid":"A18I566TMVVSFQ:3CTOC39K38ROB6DPW5IXPUC7Z5EJ75","current_trial":269,"dateTime":1512443141611,"trialdata":{"rt":568,"correct":false,"stimulus":"static/img/stimuli/images14/image5.jpg","key_press":75,"trial_type":"categorize","trial_index":269,"time_elapsed":815532,"internal_node_id":"0.0-17.0-57.0"}},{"uniqueid":"A18I566TMVVSFQ:3CTOC39K38ROB6DPW5IXPUC7Z5EJ75","current_trial":270,"dateTime":1512443144052,"trialdata":{"rt":937,"correct":true,"stimulus":"static/img/stimuli/images14/image1.jpg","key_press":75,"trial_type":"categorize","trial_index":270,"time_elapsed":817976,"internal_node_id":"0.0-17.0-58.0"}},{"uniqueid":"A18I566TMVVSFQ:3CTOC39K38ROB6DPW5IXPUC7Z5EJ75","current_trial":271,"dateTime":1512443146314,"trialdata":{"rt":761,"correct":true,"stimulus":"static/img/stimuli/images14/image1.jpg","key_press":75,"trial_type":"categorize","trial_index":271,"time_elapsed":820238,"internal_node_id":"0.0-17.0-59.0"}},{"uniqueid":"A18I566TMVVSFQ:3CTOC39K38ROB6DPW5IXPUC7Z5EJ75","current_trial":272,"dateTime":1512443148850,"trialdata":{"rt":1031,"correct":false,"stimulus":"static/img/stimuli/images14/image5.jpg","key_press":75,"trial_type":"categorize","trial_index":272,"time_elapsed":822774,"internal_node_id":"0.0-17.0-60.0"}},{"uniqueid":"A18I566TMVVSFQ:3CTOC39K38ROB6DPW5IXPUC7Z5EJ75","current_trial":273,"dateTime":1512443151480,"trialdata":{"rt":1126,"correct":true,"stimulus":"static/img/stimuli/images14/image6.jpg","key_press":75,"trial_type":"categorize","trial_index":273,"time_elapsed":825404,"internal_node_id":"0.0-17.0-61.0"}},{"uniqueid":"A18I566TMVVSFQ:3CTOC39K38ROB6DPW5IXPUC7Z5EJ75","current_trial":274,"dateTime":1512443153561,"trialdata":{"rt":576,"correct":false,"stimulus":"static/img/stimuli/images14/image5.jpg","key_press":75,"trial_type":"categorize","trial_index":274,"time_elapsed":827485,"internal_node_id":"0.0-17.0-62.0"}},{"uniqueid":"A18I566TMVVSFQ:3CTOC39K38ROB6DPW5IXPUC7Z5EJ75","current_trial":275,"dateTime":1512443155555,"trialdata":{"rt":480,"correct":false,"stimulus":"static/img/stimuli/images14/image5.jpg","key_press":75,"trial_type":"categorize","trial_index":275,"time_elapsed":829478,"internal_node_id":"0.0-17.0-63.0"}},{"uniqueid":"A18I566TMVVSFQ:3CTOC39K38ROB6DPW5IXPUC7Z5EJ75","current_trial":276,"dateTime":1512443158219,"trialdata":{"rt":1163,"correct":true,"stimulus":"static/img/stimuli/images14/image1.jpg","key_press":75,"trial_type":"categorize","trial_index":276,"time_elapsed":832143,"internal_node_id":"0.0-17.0-64.0"}},{"uniqueid":"A18I566TMVVSFQ:3CTOC39K38ROB6DPW5IXPUC7Z5EJ75","current_trial":277,"dateTime":1512443160347,"trialdata":{"rt":627,"correct":true,"stimulus":"static/img/stimuli/images14/image6.jpg","key_press":75,"trial_type":"categorize","trial_index":277,"time_elapsed":834271,"internal_node_id":"0.0-17.0-65.0"}},{"uniqueid":"A18I566TMVVSFQ:3CTOC39K38ROB6DPW5IXPUC7Z5EJ75","current_trial":278,"dateTime":1512443162843,"trialdata":{"rt":994,"correct":false,"stimulus":"static/img/stimuli/images14/image5.jpg","key_press":75,"trial_type":"categorize","trial_index":278,"time_elapsed":836767,"internal_node_id":"0.0-17.0-66.0"}},{"uniqueid":"A18I566TMVVSFQ:3CTOC39K38ROB6DPW5IXPUC7Z5EJ75","current_trial":279,"dateTime":1512443165064,"trialdata":{"rt":718,"correct":true,"stimulus":"static/img/stimuli/images14/image6.jpg","key_press":75,"trial_type":"categorize","trial_index":279,"time_elapsed":838988,"internal_node_id":"0.0-17.0-67.0"}},{"uniqueid":"A18I566TMVVSFQ:3CTOC39K38ROB6DPW5IXPUC7Z5EJ75","current_trial":280,"dateTime":1512443167608,"trialdata":{"rt":1042,"correct":true,"stimulus":"static/img/stimuli/images14/image1.jpg","key_press":75,"trial_type":"categorize","trial_index":280,"time_elapsed":841532,"internal_node_id":"0.0-17.0-68.0"}},{"uniqueid":"A18I566TMVVSFQ:3CTOC39K38ROB6DPW5IXPUC7Z5EJ75","current_trial":281,"dateTime":1512443169916,"trialdata":{"rt":804,"correct":true,"stimulus":"static/img/stimuli/images14/image1.jpg","key_press":75,"trial_type":"categorize","trial_index":281,"time_elapsed":843840,"internal_node_id":"0.0-17.0-69.0"}},{"uniqueid":"A18I566TMVVSFQ:3CTOC39K38ROB6DPW5IXPUC7Z5EJ75","current_trial":282,"dateTime":1512443172131,"trialdata":{"rt":713,"correct":false,"stimulus":"static/img/stimuli/images14/image5.jpg","key_press":75,"trial_type":"categorize","trial_index":282,"time_elapsed":846055,"internal_node_id":"0.0-17.0-70.0"}},{"uniqueid":"A18I566TMVVSFQ:3CTOC39K38ROB6DPW5IXPUC7Z5EJ75","current_trial":283,"dateTime":1512443174208,"trialdata":{"rt":564,"correct":true,"stimulus":"static/img/stimuli/images14/image1.jpg","key_press":75,"trial_type":"categorize","trial_index":283,"time_elapsed":848132,"internal_node_id":"0.0-17.0-71.0"}},{"uniqueid":"A18I566TMVVSFQ:3CTOC39K38ROB6DPW5IXPUC7Z5EJ75","current_trial":284,"dateTime":1512443176848,"trialdata":{"rt":1139,"correct":true,"stimulus":"static/img/stimuli/images14/image6.jpg","key_press":75,"trial_type":"categorize","trial_index":284,"time_elapsed":850772,"internal_node_id":"0.0-17.0-72.0"}},{"uniqueid":"A18I566TMVVSFQ:3CTOC39K38ROB6DPW5IXPUC7Z5EJ75","current_trial":285,"dateTime":1512443179233,"trialdata":{"rt":881,"correct":true,"stimulus":"static/img/stimuli/images14/image6.jpg","key_press":75,"trial_type":"categorize","trial_index":285,"time_elapsed":853157,"internal_node_id":"0.0-17.0-73.0"}},{"uniqueid":"A18I566TMVVSFQ:3CTOC39K38ROB6DPW5IXPUC7Z5EJ75","current_trial":286,"dateTime":1512443181409,"trialdata":{"rt":674,"correct":false,"stimulus":"static/img/stimuli/images14/image5.jpg","key_press":75,"trial_type":"categorize","trial_index":286,"time_elapsed":855333,"internal_node_id":"0.0-17.0-74.0"}},{"uniqueid":"A18I566TMVVSFQ:3CTOC39K38ROB6DPW5IXPUC7Z5EJ75","current_trial":287,"dateTime":1512443183375,"trialdata":{"rt":462,"correct":true,"stimulus":"static/img/stimuli/images14/image6.jpg","key_press":75,"trial_type":"categorize","trial_index":287,"time_elapsed":857299,"internal_node_id":"0.0-17.0-75.0"}},{"uniqueid":"A18I566TMVVSFQ:3CTOC39K38ROB6DPW5IXPUC7Z5EJ75","current_trial":288,"dateTime":1512443185372,"trialdata":{"rt":496,"correct":true,"stimulus":"static/img/stimuli/images14/image1.jpg","key_press":75,"trial_type":"categorize","trial_index":288,"time_elapsed":859296,"internal_node_id":"0.0-17.0-76.0"}},{"uniqueid":"A18I566TMVVSFQ:3CTOC39K38ROB6DPW5IXPUC7Z5EJ75","current_trial":289,"dateTime":1512443187273,"trialdata":{"rt":398,"correct":false,"stimulus":"static/img/stimuli/images14/image5.jpg","key_press":75,"trial_type":"categorize","trial_index":289,"time_elapsed":861197,"internal_node_id":"0.0-17.0-77.0"}},{"uniqueid":"A18I566TMVVSFQ:3CTOC39K38ROB6DPW5IXPUC7Z5EJ75","current_trial":290,"dateTime":1512443189205,"trialdata":{"view_history":"[{\"page_index\":0,\"viewing_time\":932}]","rt":932,"trial_type":"instructions","trial_index":290,"time_elapsed":863129,"internal_node_id":"0.0-18.0"}},{"uniqueid":"A18I566TMVVSFQ:3CTOC39K38ROB6DPW5IXPUC7Z5EJ75","current_trial":291,"dateTime":1512443193422,"trialdata":{"view_history":"[{\"page_index\":0,\"viewing_time\":3216}]","rt":3216,"trial_type":"instructions","trial_index":291,"time_elapsed":867346,"internal_node_id":"0.0-19.0"}},{"uniqueid":"A18I566TMVVSFQ:3CTOC39K38ROB6DPW5IXPUC7Z5EJ75","current_trial":292,"dateTime":1512443195673,"trialdata":{"rt":749,"correct":false,"stimulus":"static/img/stimuli/images7/image1.jpg","key_press":74,"trial_type":"categorize","trial_index":292,"time_elapsed":869597,"internal_node_id":"0.0-20.0-0.0"}},{"uniqueid":"A18I566TMVVSFQ:3CTOC39K38ROB6DPW5IXPUC7Z5EJ75","current_trial":293,"dateTime":1512443197721,"trialdata":{"rt":546,"correct":true,"stimulus":"static/img/stimuli/images7/image6.jpg","key_press":75,"trial_type":"categorize","trial_index":293,"time_elapsed":871645,"internal_node_id":"0.0-20.0-1.0"}},{"uniqueid":"A18I566TMVVSFQ:3CTOC39K38ROB6DPW5IXPUC7Z5EJ75","current_trial":294,"dateTime":1512443200069,"trialdata":{"rt":846,"correct":false,"stimulus":"static/img/stimuli/images7/image3.jpg","key_press":75,"trial_type":"categorize","trial_index":294,"time_elapsed":873993,"internal_node_id":"0.0-20.0-2.0"}},{"uniqueid":"A18I566TMVVSFQ:3CTOC39K38ROB6DPW5IXPUC7Z5EJ75","current_trial":295,"dateTime":1512443202330,"trialdata":{"rt":758,"correct":true,"stimulus":"static/img/stimuli/images7/image5.jpg","key_press":76,"trial_type":"categorize","trial_index":295,"time_elapsed":876254,"internal_node_id":"0.0-20.0-3.0"}},{"uniqueid":"A18I566TMVVSFQ:3CTOC39K38ROB6DPW5IXPUC7Z5EJ75","current_trial":296,"dateTime":1512443204638,"trialdata":{"rt":801,"correct":false,"stimulus":"static/img/stimuli/images7/image2.jpg","key_press":76,"trial_type":"categorize","trial_index":296,"time_elapsed":878562,"internal_node_id":"0.0-20.0-4.0"}},{"uniqueid":"A18I566TMVVSFQ:3CTOC39K38ROB6DPW5IXPUC7Z5EJ75","current_trial":297,"dateTime":1512443206945,"trialdata":{"rt":806,"correct":false,"stimulus":"static/img/stimuli/images7/image4.jpg","key_press":76,"trial_type":"categorize","trial_index":297,"time_elapsed":880869,"internal_node_id":"0.0-20.0-5.0"}},{"uniqueid":"A18I566TMVVSFQ:3CTOC39K38ROB6DPW5IXPUC7Z5EJ75","current_trial":298,"dateTime":1512443209165,"trialdata":{"rt":718,"correct":false,"stimulus":"static/img/stimuli/images7/image4.jpg","key_press":76,"trial_type":"categorize","trial_index":298,"time_elapsed":883089,"internal_node_id":"0.0-20.0-6.0"}},{"uniqueid":"A18I566TMVVSFQ:3CTOC39K38ROB6DPW5IXPUC7Z5EJ75","current_trial":299,"dateTime":1512443211346,"trialdata":{"rt":678,"correct":true,"stimulus":"static/img/stimuli/images7/image5.jpg","key_press":76,"trial_type":"categorize","trial_index":299,"time_elapsed":885270,"internal_node_id":"0.0-20.0-7.0"}},{"uniqueid":"A18I566TMVVSFQ:3CTOC39K38ROB6DPW5IXPUC7Z5EJ75","current_trial":300,"dateTime":1512443213526,"trialdata":{"rt":677,"correct":false,"stimulus":"static/img/stimuli/images7/image3.jpg","key_press":75,"trial_type":"categorize","trial_index":300,"time_elapsed":887450,"internal_node_id":"0.0-20.0-8.0"}},{"uniqueid":"A18I566TMVVSFQ:3CTOC39K38ROB6DPW5IXPUC7Z5EJ75","current_trial":301,"dateTime":1512443215889,"trialdata":{"rt":861,"correct":false,"stimulus":"static/img/stimuli/images7/image2.jpg","key_press":75,"trial_type":"categorize","trial_index":301,"time_elapsed":889813,"internal_node_id":"0.0-20.0-9.0"}},{"uniqueid":"A18I566TMVVSFQ:3CTOC39K38ROB6DPW5IXPUC7Z5EJ75","current_trial":302,"dateTime":1512443218276,"trialdata":{"rt":868,"correct":false,"stimulus":"static/img/stimuli/images7/image6.jpg","key_press":74,"trial_type":"categorize","trial_index":302,"time_elapsed":892200,"internal_node_id":"0.0-20.0-10.0"}},{"uniqueid":"A18I566TMVVSFQ:3CTOC39K38ROB6DPW5IXPUC7Z5EJ75","current_trial":303,"dateTime":1512443220682,"trialdata":{"rt":903,"correct":false,"stimulus":"static/img/stimuli/images7/image1.jpg","key_press":74,"trial_type":"categorize","trial_index":303,"time_elapsed":894606,"internal_node_id":"0.0-20.0-11.0"}},{"uniqueid":"A18I566TMVVSFQ:3CTOC39K38ROB6DPW5IXPUC7Z5EJ75","current_trial":304,"dateTime":1512443222865,"trialdata":{"rt":681,"correct":false,"stimulus":"static/img/stimuli/images7/image2.jpg","key_press":75,"trial_type":"categorize","trial_index":304,"time_elapsed":896789,"internal_node_id":"0.0-20.0-12.0"}},{"uniqueid":"A18I566TMVVSFQ:3CTOC39K38ROB6DPW5IXPUC7Z5EJ75","current_trial":305,"dateTime":1512443225525,"trialdata":{"rt":1159,"correct":true,"stimulus":"static/img/stimuli/images7/image1.jpg","key_press":75,"trial_type":"categorize","trial_index":305,"time_elapsed":899449,"internal_node_id":"0.0-20.0-13.0"}},{"uniqueid":"A18I566TMVVSFQ:3CTOC39K38ROB6DPW5IXPUC7Z5EJ75","current_trial":306,"dateTime":1512443227823,"trialdata":{"rt":795,"correct":false,"stimulus":"static/img/stimuli/images7/image4.jpg","key_press":76,"trial_type":"categorize","trial_index":306,"time_elapsed":901747,"internal_node_id":"0.0-20.0-14.0"}},{"uniqueid":"A18I566TMVVSFQ:3CTOC39K38ROB6DPW5IXPUC7Z5EJ75","current_trial":307,"dateTime":1512443230571,"trialdata":{"rt":1246,"correct":false,"stimulus":"static/img/stimuli/images7/image3.jpg","key_press":74,"trial_type":"categorize","trial_index":307,"time_elapsed":904495,"internal_node_id":"0.0-20.0-15.0"}},{"uniqueid":"A18I566TMVVSFQ:3CTOC39K38ROB6DPW5IXPUC7Z5EJ75","current_trial":308,"dateTime":1512443232905,"trialdata":{"rt":832,"correct":false,"stimulus":"static/img/stimuli/images7/image6.jpg","key_press":74,"trial_type":"categorize","trial_index":308,"time_elapsed":906829,"internal_node_id":"0.0-20.0-16.0"}},{"uniqueid":"A18I566TMVVSFQ:3CTOC39K38ROB6DPW5IXPUC7Z5EJ75","current_trial":309,"dateTime":1512443235368,"trialdata":{"rt":949,"correct":true,"stimulus":"static/img/stimuli/images7/image5.jpg","key_press":76,"trial_type":"categorize","trial_index":309,"time_elapsed":909292,"internal_node_id":"0.0-20.0-17.0"}},{"uniqueid":"A18I566TMVVSFQ:3CTOC39K38ROB6DPW5IXPUC7Z5EJ75","current_trial":310,"dateTime":1512443237921,"trialdata":{"rt":1052,"correct":true,"stimulus":"static/img/stimuli/images7/image1.jpg","key_press":75,"trial_type":"categorize","trial_index":310,"time_elapsed":911845,"internal_node_id":"0.0-20.0-18.0"}},{"uniqueid":"A18I566TMVVSFQ:3CTOC39K38ROB6DPW5IXPUC7Z5EJ75","current_trial":311,"dateTime":1512443240322,"trialdata":{"rt":895,"correct":false,"stimulus":"static/img/stimuli/images7/image6.jpg","key_press":74,"trial_type":"categorize","trial_index":311,"time_elapsed":914246,"internal_node_id":"0.0-20.0-19.0"}},{"uniqueid":"A18I566TMVVSFQ:3CTOC39K38ROB6DPW5IXPUC7Z5EJ75","current_trial":312,"dateTime":1512443242761,"trialdata":{"rt":913,"correct":true,"stimulus":"static/img/stimuli/images7/image3.jpg","key_press":76,"trial_type":"categorize","trial_index":312,"time_elapsed":916685,"internal_node_id":"0.0-20.0-20.0"}},{"uniqueid":"A18I566TMVVSFQ:3CTOC39K38ROB6DPW5IXPUC7Z5EJ75","current_trial":313,"dateTime":1512443245015,"trialdata":{"rt":752,"correct":true,"stimulus":"static/img/stimuli/images7/image5.jpg","key_press":76,"trial_type":"categorize","trial_index":313,"time_elapsed":918939,"internal_node_id":"0.0-20.0-21.0"}},{"uniqueid":"A18I566TMVVSFQ:3CTOC39K38ROB6DPW5IXPUC7Z5EJ75","current_trial":314,"dateTime":1512443247964,"trialdata":{"rt":1445,"correct":true,"stimulus":"static/img/stimuli/images7/image2.jpg","key_press":74,"trial_type":"categorize","trial_index":314,"time_elapsed":921888,"internal_node_id":"0.0-20.0-22.0"}},{"uniqueid":"A18I566TMVVSFQ:3CTOC39K38ROB6DPW5IXPUC7Z5EJ75","current_trial":315,"dateTime":1512443250300,"trialdata":{"rt":832,"correct":false,"stimulus":"static/img/stimuli/images7/image4.jpg","key_press":76,"trial_type":"categorize","trial_index":315,"time_elapsed":924224,"internal_node_id":"0.0-20.0-23.0"}},{"uniqueid":"A18I566TMVVSFQ:3CTOC39K38ROB6DPW5IXPUC7Z5EJ75","current_trial":316,"dateTime":1512443252430,"trialdata":{"rt":628,"correct":true,"stimulus":"static/img/stimuli/images7/image5.jpg","key_press":76,"trial_type":"categorize","trial_index":316,"time_elapsed":926354,"internal_node_id":"0.0-20.0-24.0"}},{"uniqueid":"A18I566TMVVSFQ:3CTOC39K38ROB6DPW5IXPUC7Z5EJ75","current_trial":317,"dateTime":1512443255121,"trialdata":{"rt":1189,"correct":false,"stimulus":"static/img/stimuli/images7/image1.jpg","key_press":76,"trial_type":"categorize","trial_index":317,"time_elapsed":929045,"internal_node_id":"0.0-20.0-25.0"}},{"uniqueid":"A18I566TMVVSFQ:3CTOC39K38ROB6DPW5IXPUC7Z5EJ75","current_trial":318,"dateTime":1512443257828,"trialdata":{"rt":1203,"correct":true,"stimulus":"static/img/stimuli/images7/image2.jpg","key_press":74,"trial_type":"categorize","trial_index":318,"time_elapsed":931752,"internal_node_id":"0.0-20.0-26.0"}},{"uniqueid":"A18I566TMVVSFQ:3CTOC39K38ROB6DPW5IXPUC7Z5EJ75","current_trial":319,"dateTime":1512443260134,"trialdata":{"rt":803,"correct":false,"stimulus":"static/img/stimuli/images7/image6.jpg","key_press":74,"trial_type":"categorize","trial_index":319,"time_elapsed":934058,"internal_node_id":"0.0-20.0-27.0"}},{"uniqueid":"A18I566TMVVSFQ:3CTOC39K38ROB6DPW5IXPUC7Z5EJ75","current_trial":320,"dateTime":1512443262736,"trialdata":{"rt":1092,"correct":false,"stimulus":"static/img/stimuli/images7/image4.jpg","key_press":76,"trial_type":"categorize","trial_index":320,"time_elapsed":936660,"internal_node_id":"0.0-20.0-28.0"}},{"uniqueid":"A18I566TMVVSFQ:3CTOC39K38ROB6DPW5IXPUC7Z5EJ75","current_trial":321,"dateTime":1512443265027,"trialdata":{"rt":789,"correct":true,"stimulus"